Subject,SessionDate,SessionTime,Sex,SexNum,Age,NativeLanguage,watch_movies,enjoy_scary_movies,watch_scary_movies,TV_with_screams,know_about_movies_actors,know_video_gmes,play_action_vid_gmes,confid_about_scrms_expt,diff_making_choice_expt,reading_emotions,CambridgeBehaviourScale,Trial,SoundFile2,StimType,Duration_1,Duration_2,Sound_End_Time,ScreamerSex,CorrectAnswer,Stimulus.RESP,ACC,Stimulus.RT,Actual_Latency1,14-Dec-11,2:00:31 PM,Female,0.00,19,Korean,5,4,3,2,3,1,1,3,2,4,45,20,DurationModified_1,0.00,1516.00,1006.00,5927.00,0.00,1,1,1.00,5990,63.001,14-Dec-11,2:00:31 PM,Female,0.00,19,Korean,5,4,3,2,3,1,1,3,2,4,45,46,DurationModified_2,0.00,1024.00,536.00,4611.00,0.00,1,2,0.00,5261,650.001,14-Dec-11,2:00:31 PM,Female,0.00,19,Korean,5,4,3,2,3,1,1,3,2,4,45,60,DurationModified_3,0.00,2756.00,1830.00,8340.00,0.00,1,1,1.00,3718,-4622.001,14-Dec-11,2:00:31 PM,Female,0.00,19,Korean,5,4,3,2,3,1,1,3,2,4,45,5,DurationModified_4,0.00,839.00,973.00,4337.00,0.00,1,2,0.00,5459,1122.001,14-Dec-11,2:00:31 PM,Female,0.00,19,Korean,5,4,3,2,3,1,1,3,2,4,45,25,DurationModified_5,0.00,4599.00,3951.00,10891.00,0.00,1,1,1.00,11686,795.001,14-Dec-11,2:00:31 PM,Female,0.00,19,Korean,5,4,3,2,3,1,1,3,2,4,45,50,DurationModified_6,0.00,420.00,382.00,2895.00,1.00,1,1,1.00,3401,506.001,14-Dec-11,2:00:31 PM,Female,0.00,19,Korean,5,4,3,2,3,1,1,3,2,4,45,24,DurationModified_7,0.00,2579.00,1297.00,6154.00,0.00,1,1,1.00,6627,473.001,14-Dec-11,2:00:31 PM,Female,0.00,19,Korean,5,4,3,2,3,1,1,3,2,4,45,59,DurationModified_8,0.00,3662.00,3013.00,9210.00,0.00,1,1,1.00,10281,1071.001,14-Dec-11,2:00:31 PM,Female,0.00,19,Korean,5,4,3,2,3,1,1,3,2,4,45,53,DurationModified_9,0.00,1583.00,1321.00,5504.00,0.00,1,1,1.00,6498,994.001,14-Dec-11,2:00:31 PM,Female,0.00,19,Korean,5,4,3,2,3,1,1,3,2,4,45,9,DurationModified_10,0.00,2888.00,3611.00,9173.00,1.00,1,1,1.00,9847,674.001,14-Dec-11,2:00:31 PM,Female,0.00,19,Korean,5,4,3,2,3,1,1,3,2,4,45,14,DurationModified_11,0.00,2938.00,3324.00,8308.00,0.00,1,1,1.00,9155,847.001,14-Dec-11,2:00:31 PM,Female,0.00,19,Korean,5,4,3,2,3,1,1,3,2,4,45,2,DurationModified_12,0.00,1900.00,1279.00,5285.00,0.00,1,1,1.00,5878,593.001,14-Dec-11,2:00:31 PM,Female,0.00,19,Korean,5,4,3,2,3,1,1,3,2,4,45,47,SameVocalizer_1,1.00,1163.00,1175.00,5347.00,1.00,1,2,0.00,5804,457.001,14-Dec-11,2:00:31 PM,Female,0.00,19,Korean,5,4,3,2,3,1,1,3,2,4,45,35,SameVocalizer_2,1.00,950.00,1175.00,4623.00,1.00,1,2,0.00,8192,3569.001,14-Dec-11,2:00:31 PM,Female,0.00,19,Korean,5,4,3,2,3,1,1,3,2,4,45,12,SameVocalizer_3,1.00,950.00,1084.00,5338.00,1.00,1,2,0.00,5377,39.001,14-Dec-11,2:00:31 PM,Female,0.00,19,Korean,5,4,3,2,3,1,1,3,2,4,45,31,SameVocalizer_4,1.00,1163.00,1175.00,6044.00,1.00,1,2,0.00,7017,973.001,14-Dec-11,2:00:31 PM,Female,0.00,19,Korean,5,4,3,2,3,1,1,3,2,4,45,13,SameVocalizer_5,1.00,1250.00,870.00,4270.00,0.00,1,2,0.00,4992,722.001,14-Dec-11,2:00:31 PM,Female,0.00,19,Korean,5,4,3,2,3,1,1,3,2,4,45,22,SameVocalizer_6,1.00,1305.00,1044.00,4409.00,0.00,1,1,1.00,4837,428.001,14-Dec-11,2:00:31 PM,Female,0.00,19,Korean,5,4,3,2,3,1,1,3,2,4,45,15,SameVocalizer_7,1.00,1305.00,891.00,4439.00,0.00,1,2,0.00,5258,819.001,14-Dec-11,2:00:31 PM,Female,0.00,19,Korean,5,4,3,2,3,1,1,3,2,4,45,10,SameVocalizer_8,1.00,487.00,468.00,3307.00,1.00,1,1,1.00,4023,716.001,14-Dec-11,2:00:31 PM,Female,0.00,19,Korean,5,4,3,2,3,1,1,3,2,4,45,29,SameVocalizer_9,1.00,1818.00,1794.00,5841.00,1.00,1,2,0.00,6594,753.001,14-Dec-11,2:00:31 PM,Female,0.00,19,Korean,5,4,3,2,3,1,1,3,2,4,45,58,SameVocalizer_10,1.00,466.00,496.00,3212.00,1.00,1,1,1.00,3509,297.001,14-Dec-11,2:00:31 PM,Female,0.00,19,Korean,5,4,3,2,3,1,1,3,2,4,45,33,SameVocalizer_11,1.00,496.00,636.00,3415.00,1.00,1,1,1.00,4158,743.001,14-Dec-11,2:00:31 PM,Female,0.00,19,Korean,5,4,3,2,3,1,1,3,2,4,45,39,SameVocalizer_12,1.00,1752.00,2024.00,5978.00,0.00,1,2,0.00,6766,788.001,14-Dec-11,2:00:31 PM,Female,0.00,19,Korean,5,4,3,2,3,1,1,3,2,4,45,42,SameVocalizer_13,1.00,1418.00,1326.00,5210.00,0.00,1,1,1.00,6067,857.001,14-Dec-11,2:00:31 PM,Female,0.00,19,Korean,5,4,3,2,3,1,1,3,2,4,45,37,SameVocalizer_14,1.00,677.00,679.00,3760.00,0.00,1,2,0.00,7430,3670.001,14-Dec-11,2:00:31 PM,Female,0.00,19,Korean,5,4,3,2,3,1,1,3,2,4,45,26,SameVocalizer_15,1.00,677.00,990.00,4003.00,0.00,1,1,1.00,4358,355.001,14-Dec-11,2:00:31 PM,Female,0.00,19,Korean,5,4,3,2,3,1,1,3,2,4,45,52,SameVocalizer_16,1.00,3636.00,4663.00,10677.00,0.00,1,2,0.00,11244,567.001,14-Dec-11,2:00:31 PM,Female,0.00,19,Korean,5,4,3,2,3,1,1,3,2,4,45,32,SameVocalizer_17,1.00,1635.00,1326.00,5182.00,0.00,1,2,0.00,5363,181.001,14-Dec-11,2:00:31 PM,Female,0.00,19,Korean,5,4,3,2,3,1,1,3,2,4,45,36,SameVocalizer_18,1.00,533.00,659.00,3443.00,0.00,1,2,0.00,5915,2472.001,14-Dec-11,2:00:31 PM,Female,0.00,19,Korean,5,4,3,2,3,1,1,3,2,4,45,3,SameVocalizer_19,1.00,2078.00,1955.00,6320.00,0.00,1,2,0.00,9657,3337.001,14-Dec-11,2:00:31 PM,Female,0.00,19,Korean,5,4,3,2,3,1,1,3,2,4,45,34,SameVocalizer_20,1.00,2050.00,1517.00,5594.00,0.00,1,1,1.00,3560,-2034.001,14-Dec-11,2:00:31 PM,Female,0.00,19,Korean,5,4,3,2,3,1,1,3,2,4,45,41,SameVocalizer_21,1.00,898.00,1517.00,4555.00,0.00,1,2,0.00,4586,31.001,14-Dec-11,2:00:31 PM,Female,0.00,19,Korean,5,4,3,2,3,1,1,3,2,4,45,45,SameVocalizer_22,1.00,641.00,389.00,3506.00,0.00,1,2,0.00,4735,1229.001,14-Dec-11,2:00:31 PM,Female,0.00,19,Korean,5,4,3,2,3,1,1,3,2,4,45,43,SameVocalizer_23,1.00,6076.00,7904.00,16542.00,0.00,1,2,0.00,17146,604.001,14-Dec-11,2:00:31 PM,Female,0.00,19,Korean,5,4,3,2,3,1,1,3,2,4,45,57,SameVocalizer_24,1.00,1290.00,1262.00,4642.00,0.00,1,2,0.00,8726,4084.001,14-Dec-11,2:00:31 PM,Female,0.00,19,Korean,5,4,3,2,3,1,1,3,2,4,45,8,DifferentVocalizer_1,2.00,893.00,679.00,3725.00,0.00,2,1,0.00,5088,1363.001,14-Dec-11,2:00:31 PM,Female,0.00,19,Korean,5,4,3,2,3,1,1,3,2,4,45,51,DifferentVocalizer_2,2.00,1351.00,1084.00,4823.00,1.00,2,2,1.00,5534,711.001,14-Dec-11,2:00:31 PM,Female,0.00,19,Korean,5,4,3,2,3,1,1,3,2,4,45,28,DifferentVocalizer_3,2.00,1351.00,1175.00,5427.00,1.00,2,2,1.00,6739,1312.001,14-Dec-11,2:00:31 PM,Female,0.00,19,Korean,5,4,3,2,3,1,1,3,2,4,45,18,DifferentVocalizer_4,2.00,891.00,665.00,3640.00,0.00,2,2,1.00,4188,548.001,14-Dec-11,2:00:31 PM,Female,0.00,19,Korean,5,4,3,2,3,1,1,3,2,4,45,11,DifferentVocalizer_5,2.00,1818.00,1831.00,5708.00,1.00,2,1,0.00,2316,-3392.001,14-Dec-11,2:00:31 PM,Female,0.00,19,Korean,5,4,3,2,3,1,1,3,2,4,45,23,DifferentVocalizer_6,2.00,487.00,371.00,3323.00,1.00,2,2,1.00,4204,881.001,14-Dec-11,2:00:31 PM,Female,0.00,19,Korean,5,4,3,2,3,1,1,3,2,4,45,1,DifferentVocalizer_7,2.00,2923.00,2782.00,8110.00,1.00,2,2,1.00,36987,28877.001,14-Dec-11,2:00:31 PM,Female,0.00,19,Korean,5,4,3,2,3,1,1,3,2,4,45,48,DifferentVocalizer_8,2.00,636.00,749.00,3523.00,1.00,2,2,1.00,4261,738.001,14-Dec-11,2:00:31 PM,Female,0.00,19,Korean,5,4,3,2,3,1,1,3,2,4,45,4,DifferentVocalizer_9,2.00,1726.00,1134.00,6700.00,0.00,2,2,1.00,7201,501.001,14-Dec-11,2:00:31 PM,Female,0.00,19,Korean,5,4,3,2,3,1,1,3,2,4,45,17,DifferentVocalizer_10,2.00,888.00,870.00,4015.00,0.00,2,2,1.00,4698,683.001,14-Dec-11,2:00:31 PM,Female,0.00,19,Korean,5,4,3,2,3,1,1,3,2,4,45,38,DifferentVocalizer_11,2.00,677.00,893.00,3824.00,0.00,2,1,0.00,7107,3283.001,14-Dec-11,2:00:31 PM,Female,0.00,19,Korean,5,4,3,2,3,1,1,3,2,4,45,49,DifferentVocalizer_12,2.00,3365.00,4632.00,10086.00,1.00,2,2,1.00,11460,1374.001,14-Dec-11,2:00:31 PM,Female,0.00,19,Korean,5,4,3,2,3,1,1,3,2,4,45,54,DifferentVocalizer_13,2.00,1326.00,1301.00,4776.00,0.00,2,2,1.00,6539,1763.001,14-Dec-11,2:00:31 PM,Female,0.00,19,Korean,5,4,3,2,3,1,1,3,2,4,45,19,DifferentVocalizer_14,2.00,1583.00,1517.00,5407.00,0.00,2,1,0.00,7546,2139.001,14-Dec-11,2:00:31 PM,Female,0.00,19,Korean,5,4,3,2,3,1,1,3,2,4,45,7,DifferentVocalizer_15,2.00,487.00,562.00,3424.00,1.00,2,2,1.00,4053,629.001,14-Dec-11,2:00:31 PM,Female,0.00,19,Korean,5,4,3,2,3,1,1,3,2,4,45,56,DifferentVocalizer_16,2.00,945.00,1259.00,4568.00,0.00,2,2,1.00,5113,545.001,14-Dec-11,2:00:31 PM,Female,0.00,19,Korean,5,4,3,2,3,1,1,3,2,4,45,40,DifferentVocalizer_17,2.00,645.00,420.00,3120.00,0.00,2,2,1.00,3686,566.001,14-Dec-11,2:00:31 PM,Female,0.00,19,Korean,5,4,3,2,3,1,1,3,2,4,45,27,DifferentVocalizer_18,2.00,1170.00,1173.00,5887.00,0.00,2,2,1.00,6564,677.001,14-Dec-11,2:00:31 PM,Female,0.00,19,Korean,5,4,3,2,3,1,1,3,2,4,45,6,DifferentVocalizer_19,2.00,1794.00,1044.00,5306.00,0.00,2,2,1.00,6160,854.001,14-Dec-11,2:00:31 PM,Female,0.00,19,Korean,5,4,3,2,3,1,1,3,2,4,45,44,DifferentVocalizer_20,2.00,916.00,1046.00,3982.00,0.00,2,2,1.00,4420,438.001,14-Dec-11,2:00:31 PM,Female,0.00,19,Korean,5,4,3,2,3,1,1,3,2,4,45,21,DifferentVocalizer_21,2.00,916.00,1046.00,3982.00,0.00,2,2,1.00,4580,598.001,14-Dec-11,2:00:31 PM,Female,0.00,19,Korean,5,4,3,2,3,1,1,3,2,4,45,16,DifferentVocalizer_22,2.00,916.00,757.00,4117.00,0.00,2,2,1.00,4984,867.001,14-Dec-11,2:00:31 PM,Female,0.00,19,Korean,5,4,3,2,3,1,1,3,2,4,45,55,DifferentVocalizer_23,2.00,2581.00,2362.00,7251.00,0.00,2,1,0.00,8069,818.001,14-Dec-11,2:00:31 PM,Female,0.00,19,Korean,5,4,3,2,3,1,1,3,2,4,45,30,DifferentVocalizer_24,2.00,1290.00,1300.00,4623.00,0.00,2,2,1.00,6284,1661.002,28-Oct-11,4:45:39 PM,Male,1.00,20,English,5,4,4,3,3,5,4,4,4,4,52,2,DurationModified_1,0.00,1516.00,1006.00,5927.00,0.00,1,1,1.00,7603,1676.002,28-Oct-11,4:45:39 PM,Male,1.00,20,English,5,4,4,3,3,5,4,4,4,4,52,37,DurationModified_2,0.00,1024.00,536.00,4611.00,0.00,1,1,1.00,6119,1508.002,28-Oct-11,4:45:39 PM,Male,1.00,20,English,5,4,4,3,3,5,4,4,4,4,52,48,DurationModified_3,0.00,2756.00,1830.00,8340.00,0.00,1,1,1.00,7520,-820.002,28-Oct-11,4:45:39 PM,Male,1.00,20,English,5,4,4,3,3,5,4,4,4,4,52,23,DurationModified_4,0.00,839.00,973.00,4337.00,0.00,1,1,1.00,4605,268.002,28-Oct-11,4:45:39 PM,Male,1.00,20,English,5,4,4,3,3,5,4,4,4,4,52,56,DurationModified_5,0.00,4599.00,3951.00,10891.00,0.00,1,1,1.00,11173,282.002,28-Oct-11,4:45:39 PM,Male,1.00,20,English,5,4,4,3,3,5,4,4,4,4,52,27,DurationModified_6,0.00,420.00,382.00,2895.00,1.00,1,1,1.00,3761,866.002,28-Oct-11,4:45:39 PM,Male,1.00,20,English,5,4,4,3,3,5,4,4,4,4,52,8,DurationModified_7,0.00,2579.00,1297.00,6154.00,0.00,1,1,1.00,5972,-182.002,28-Oct-11,4:45:39 PM,Male,1.00,20,English,5,4,4,3,3,5,4,4,4,4,52,29,DurationModified_8,0.00,3662.00,3013.00,9210.00,0.00,1,1,1.00,9423,213.002,28-Oct-11,4:45:39 PM,Male,1.00,20,English,5,4,4,3,3,5,4,4,4,4,52,40,DurationModified_9,0.00,1583.00,1321.00,5504.00,0.00,1,1,1.00,5546,42.002,28-Oct-11,4:45:39 PM,Male,1.00,20,English,5,4,4,3,3,5,4,4,4,4,52,26,DurationModified_10,0.00,2888.00,3611.00,9173.00,1.00,1,1,1.00,10743,1570.002,28-Oct-11,4:45:39 PM,Male,1.00,20,English,5,4,4,3,3,5,4,4,4,4,52,18,DurationModified_11,0.00,2938.00,3324.00,8308.00,0.00,1,1,1.00,8459,151.002,28-Oct-11,4:45:39 PM,Male,1.00,20,English,5,4,4,3,3,5,4,4,4,4,52,59,DurationModified_12,0.00,1900.00,1279.00,5285.00,0.00,1,1,1.00,6383,1098.002,28-Oct-11,4:45:39 PM,Male,1.00,20,English,5,4,4,3,3,5,4,4,4,4,52,22,SameVocalizer_1,1.00,1163.00,1175.00,5347.00,1.00,1,1,1.00,6924,1577.002,28-Oct-11,4:45:39 PM,Male,1.00,20,English,5,4,4,3,3,5,4,4,4,4,52,60,SameVocalizer_2,1.00,950.00,1175.00,4623.00,1.00,1,1,1.00,5811,1188.002,28-Oct-11,4:45:39 PM,Male,1.00,20,English,5,4,4,3,3,5,4,4,4,4,52,45,SameVocalizer_3,1.00,950.00,1084.00,5338.00,1.00,1,1,1.00,5934,596.002,28-Oct-11,4:45:39 PM,Male,1.00,20,English,5,4,4,3,3,5,4,4,4,4,52,12,SameVocalizer_4,1.00,1163.00,1175.00,6044.00,1.00,1,1,1.00,6909,865.002,28-Oct-11,4:45:39 PM,Male,1.00,20,English,5,4,4,3,3,5,4,4,4,4,52,46,SameVocalizer_5,1.00,1250.00,870.00,4270.00,0.00,1,2,0.00,5570,1300.002,28-Oct-11,4:45:39 PM,Male,1.00,20,English,5,4,4,3,3,5,4,4,4,4,52,33,SameVocalizer_6,1.00,1305.00,1044.00,4409.00,0.00,1,1,1.00,4790,381.002,28-Oct-11,4:45:39 PM,Male,1.00,20,English,5,4,4,3,3,5,4,4,4,4,52,25,SameVocalizer_7,1.00,1305.00,891.00,4439.00,0.00,1,1,1.00,6471,2032.002,28-Oct-11,4:45:39 PM,Male,1.00,20,English,5,4,4,3,3,5,4,4,4,4,52,9,SameVocalizer_8,1.00,487.00,468.00,3307.00,1.00,1,2,0.00,4214,907.002,28-Oct-11,4:45:39 PM,Male,1.00,20,English,5,4,4,3,3,5,4,4,4,4,52,10,SameVocalizer_9,1.00,1818.00,1794.00,5841.00,1.00,1,2,0.00,7605,1764.002,28-Oct-11,4:45:39 PM,Male,1.00,20,English,5,4,4,3,3,5,4,4,4,4,52,32,SameVocalizer_10,1.00,466.00,496.00,3212.00,1.00,1,1,1.00,3600,388.002,28-Oct-11,4:45:39 PM,Male,1.00,20,English,5,4,4,3,3,5,4,4,4,4,52,38,SameVocalizer_11,1.00,496.00,636.00,3415.00,1.00,1,1,1.00,4840,1425.002,28-Oct-11,4:45:39 PM,Male,1.00,20,English,5,4,4,3,3,5,4,4,4,4,52,17,SameVocalizer_12,1.00,1752.00,2024.00,5978.00,0.00,1,2,0.00,8993,3015.002,28-Oct-11,4:45:39 PM,Male,1.00,20,English,5,4,4,3,3,5,4,4,4,4,52,1,SameVocalizer_13,1.00,1418.00,1326.00,5210.00,0.00,1,1,1.00,7167,1957.002,28-Oct-11,4:45:39 PM,Male,1.00,20,English,5,4,4,3,3,5,4,4,4,4,52,49,SameVocalizer_14,1.00,677.00,679.00,3760.00,0.00,1,1,1.00,5134,1374.002,28-Oct-11,4:45:39 PM,Male,1.00,20,English,5,4,4,3,3,5,4,4,4,4,52,6,SameVocalizer_15,1.00,677.00,990.00,4003.00,0.00,1,1,1.00,4430,427.002,28-Oct-11,4:45:39 PM,Male,1.00,20,English,5,4,4,3,3,5,4,4,4,4,52,50,SameVocalizer_16,1.00,3636.00,4663.00,10677.00,0.00,1,1,1.00,11325,648.002,28-Oct-11,4:45:39 PM,Male,1.00,20,English,5,4,4,3,3,5,4,4,4,4,52,53,SameVocalizer_17,1.00,1635.00,1326.00,5182.00,0.00,1,1,1.00,6273,1091.002,28-Oct-11,4:45:39 PM,Male,1.00,20,English,5,4,4,3,3,5,4,4,4,4,52,44,SameVocalizer_18,1.00,533.00,659.00,3443.00,0.00,1,2,0.00,6830,3387.002,28-Oct-11,4:45:39 PM,Male,1.00,20,English,5,4,4,3,3,5,4,4,4,4,52,58,SameVocalizer_19,1.00,2078.00,1955.00,6320.00,0.00,1,2,0.00,8198,1878.002,28-Oct-11,4:45:39 PM,Male,1.00,20,English,5,4,4,3,3,5,4,4,4,4,52,57,SameVocalizer_20,1.00,2050.00,1517.00,5594.00,0.00,1,1,1.00,6772,1178.002,28-Oct-11,4:45:39 PM,Male,1.00,20,English,5,4,4,3,3,5,4,4,4,4,52,5,SameVocalizer_21,1.00,898.00,1517.00,4555.00,0.00,1,2,0.00,5920,1365.002,28-Oct-11,4:45:39 PM,Male,1.00,20,English,5,4,4,3,3,5,4,4,4,4,52,19,SameVocalizer_22,1.00,641.00,389.00,3506.00,0.00,1,1,1.00,4297,791.002,28-Oct-11,4:45:39 PM,Male,1.00,20,English,5,4,4,3,3,5,4,4,4,4,52,47,SameVocalizer_23,1.00,6076.00,7904.00,16542.00,0.00,1,1,1.00,11583,-4959.002,28-Oct-11,4:45:39 PM,Male,1.00,20,English,5,4,4,3,3,5,4,4,4,4,52,13,SameVocalizer_24,1.00,1290.00,1262.00,4642.00,0.00,1,1,1.00,5558,916.002,28-Oct-11,4:45:39 PM,Male,1.00,20,English,5,4,4,3,3,5,4,4,4,4,52,4,DifferentVocalizer_1,2.00,893.00,679.00,3725.00,0.00,2,2,1.00,5633,1908.002,28-Oct-11,4:45:39 PM,Male,1.00,20,English,5,4,4,3,3,5,4,4,4,4,52,20,DifferentVocalizer_2,2.00,1351.00,1084.00,4823.00,1.00,2,2,1.00,7255,2432.002,28-Oct-11,4:45:39 PM,Male,1.00,20,English,5,4,4,3,3,5,4,4,4,4,52,30,DifferentVocalizer_3,2.00,1351.00,1175.00,5427.00,1.00,2,2,1.00,6833,1406.002,28-Oct-11,4:45:39 PM,Male,1.00,20,English,5,4,4,3,3,5,4,4,4,4,52,21,DifferentVocalizer_4,2.00,891.00,665.00,3640.00,0.00,2,2,1.00,5429,1789.002,28-Oct-11,4:45:39 PM,Male,1.00,20,English,5,4,4,3,3,5,4,4,4,4,52,54,DifferentVocalizer_5,2.00,1818.00,1831.00,5708.00,1.00,2,2,1.00,5408,-300.002,28-Oct-11,4:45:39 PM,Male,1.00,20,English,5,4,4,3,3,5,4,4,4,4,52,15,DifferentVocalizer_6,2.00,487.00,371.00,3323.00,1.00,2,1,0.00,7125,3802.002,28-Oct-11,4:45:39 PM,Male,1.00,20,English,5,4,4,3,3,5,4,4,4,4,52,43,DifferentVocalizer_7,2.00,2923.00,2782.00,8110.00,1.00,2,2,1.00,6732,-1378.002,28-Oct-11,4:45:39 PM,Male,1.00,20,English,5,4,4,3,3,5,4,4,4,4,52,14,DifferentVocalizer_8,2.00,636.00,749.00,3523.00,1.00,2,2,1.00,3862,339.002,28-Oct-11,4:45:39 PM,Male,1.00,20,English,5,4,4,3,3,5,4,4,4,4,52,16,DifferentVocalizer_9,2.00,1726.00,1134.00,6700.00,0.00,2,2,1.00,6656,-44.002,28-Oct-11,4:45:39 PM,Male,1.00,20,English,5,4,4,3,3,5,4,4,4,4,52,11,DifferentVocalizer_10,2.00,888.00,870.00,4015.00,0.00,2,2,1.00,4285,270.002,28-Oct-11,4:45:39 PM,Male,1.00,20,English,5,4,4,3,3,5,4,4,4,4,52,55,DifferentVocalizer_11,2.00,677.00,893.00,3824.00,0.00,2,2,1.00,4743,919.002,28-Oct-11,4:45:39 PM,Male,1.00,20,English,5,4,4,3,3,5,4,4,4,4,52,31,DifferentVocalizer_12,2.00,3365.00,4632.00,10086.00,1.00,2,2,1.00,7588,-2498.002,28-Oct-11,4:45:39 PM,Male,1.00,20,English,5,4,4,3,3,5,4,4,4,4,52,52,DifferentVocalizer_13,2.00,1326.00,1301.00,4776.00,0.00,2,2,1.00,5162,386.002,28-Oct-11,4:45:39 PM,Male,1.00,20,English,5,4,4,3,3,5,4,4,4,4,52,35,DifferentVocalizer_14,2.00,1583.00,1517.00,5407.00,0.00,2,2,1.00,6587,1180.002,28-Oct-11,4:45:39 PM,Male,1.00,20,English,5,4,4,3,3,5,4,4,4,4,52,36,DifferentVocalizer_15,2.00,487.00,562.00,3424.00,1.00,2,2,1.00,4649,1225.002,28-Oct-11,4:45:39 PM,Male,1.00,20,English,5,4,4,3,3,5,4,4,4,4,52,39,DifferentVocalizer_16,2.00,945.00,1259.00,4568.00,0.00,2,2,1.00,5808,1240.002,28-Oct-11,4:45:39 PM,Male,1.00,20,English,5,4,4,3,3,5,4,4,4,4,52,28,DifferentVocalizer_17,2.00,645.00,420.00,3120.00,0.00,2,1,0.00,5547,2427.002,28-Oct-11,4:45:39 PM,Male,1.00,20,English,5,4,4,3,3,5,4,4,4,4,52,42,DifferentVocalizer_18,2.00,1170.00,1173.00,5887.00,0.00,2,2,1.00,5626,-261.002,28-Oct-11,4:45:39 PM,Male,1.00,20,English,5,4,4,3,3,5,4,4,4,4,52,7,DifferentVocalizer_19,2.00,1794.00,1044.00,5306.00,0.00,2,2,1.00,6950,1644.002,28-Oct-11,4:45:39 PM,Male,1.00,20,English,5,4,4,3,3,5,4,4,4,4,52,24,DifferentVocalizer_20,2.00,916.00,1046.00,3982.00,0.00,2,2,1.00,5068,1086.002,28-Oct-11,4:45:39 PM,Male,1.00,20,English,5,4,4,3,3,5,4,4,4,4,52,3,DifferentVocalizer_21,2.00,916.00,1046.00,3982.00,0.00,2,2,1.00,4184,202.002,28-Oct-11,4:45:39 PM,Male,1.00,20,English,5,4,4,3,3,5,4,4,4,4,52,51,DifferentVocalizer_22,2.00,916.00,757.00,4117.00,0.00,2,2,1.00,5478,1361.002,28-Oct-11,4:45:39 PM,Male,1.00,20,English,5,4,4,3,3,5,4,4,4,4,52,34,DifferentVocalizer_23,2.00,2581.00,2362.00,7251.00,0.00,2,2,1.00,7939,688.002,28-Oct-11,4:45:39 PM,Male,1.00,20,English,5,4,4,3,3,5,4,4,4,4,52,41,DifferentVocalizer_24,2.00,1290.00,1300.00,4623.00,0.00,2,2,1.00,5698,1075.003,4-Nov-11,10:59:57 AM,Female,0.00,18,English,4,3,1,2,4,1,1,3,2,4,46,15,DurationModified_1,0.00,1516.00,1006.00,5927.00,0.00,1,1,1.00,6836,909.003,4-Nov-11,10:59:57 AM,Female,0.00,18,English,4,3,1,2,4,1,1,3,2,4,46,20,DurationModified_2,0.00,1024.00,536.00,4611.00,0.00,1,1,1.00,5917,1306.003,4-Nov-11,10:59:57 AM,Female,0.00,18,English,4,3,1,2,4,1,1,3,2,4,46,34,DurationModified_3,0.00,2756.00,1830.00,8340.00,0.00,1,1,1.00,8680,340.003,4-Nov-11,10:59:57 AM,Female,0.00,18,English,4,3,1,2,4,1,1,3,2,4,46,24,DurationModified_4,0.00,839.00,973.00,4337.00,0.00,1,1,1.00,4929,592.003,4-Nov-11,10:59:57 AM,Female,0.00,18,English,4,3,1,2,4,1,1,3,2,4,46,12,DurationModified_5,0.00,4599.00,3951.00,10891.00,0.00,1,1,1.00,11273,382.003,4-Nov-11,10:59:57 AM,Female,0.00,18,English,4,3,1,2,4,1,1,3,2,4,46,29,DurationModified_6,0.00,420.00,382.00,2895.00,1.00,1,1,1.00,3605,710.003,4-Nov-11,10:59:57 AM,Female,0.00,18,English,4,3,1,2,4,1,1,3,2,4,46,17,DurationModified_7,0.00,2579.00,1297.00,6154.00,0.00,1,1,1.00,7162,1008.003,4-Nov-11,10:59:57 AM,Female,0.00,18,English,4,3,1,2,4,1,1,3,2,4,46,53,DurationModified_8,0.00,3662.00,3013.00,9210.00,0.00,1,1,1.00,9603,393.003,4-Nov-11,10:59:57 AM,Female,0.00,18,English,4,3,1,2,4,1,1,3,2,4,46,18,DurationModified_9,0.00,1583.00,1321.00,5504.00,0.00,1,1,1.00,5960,456.003,4-Nov-11,10:59:57 AM,Female,0.00,18,English,4,3,1,2,4,1,1,3,2,4,46,2,DurationModified_10,0.00,2888.00,3611.00,9173.00,1.00,1,1,1.00,9736,563.003,4-Nov-11,10:59:57 AM,Female,0.00,18,English,4,3,1,2,4,1,1,3,2,4,46,13,DurationModified_11,0.00,2938.00,3324.00,8308.00,0.00,1,1,1.00,8872,564.003,4-Nov-11,10:59:57 AM,Female,0.00,18,English,4,3,1,2,4,1,1,3,2,4,46,36,DurationModified_12,0.00,1900.00,1279.00,5285.00,0.00,1,1,1.00,6015,730.003,4-Nov-11,10:59:57 AM,Female,0.00,18,English,4,3,1,2,4,1,1,3,2,4,46,19,SameVocalizer_1,1.00,1163.00,1175.00,5347.00,1.00,1,1,1.00,6495,1148.003,4-Nov-11,10:59:57 AM,Female,0.00,18,English,4,3,1,2,4,1,1,3,2,4,46,45,SameVocalizer_2,1.00,950.00,1175.00,4623.00,1.00,1,1,1.00,5528,905.003,4-Nov-11,10:59:57 AM,Female,0.00,18,English,4,3,1,2,4,1,1,3,2,4,46,40,SameVocalizer_3,1.00,950.00,1084.00,5338.00,1.00,1,1,1.00,6337,999.003,4-Nov-11,10:59:57 AM,Female,0.00,18,English,4,3,1,2,4,1,1,3,2,4,46,41,SameVocalizer_4,1.00,1163.00,1175.00,6044.00,1.00,1,1,1.00,6694,650.003,4-Nov-11,10:59:57 AM,Female,0.00,18,English,4,3,1,2,4,1,1,3,2,4,46,16,SameVocalizer_5,1.00,1250.00,870.00,4270.00,0.00,1,1,1.00,5736,1466.003,4-Nov-11,10:59:57 AM,Female,0.00,18,English,4,3,1,2,4,1,1,3,2,4,46,42,SameVocalizer_6,1.00,1305.00,1044.00,4409.00,0.00,1,1,1.00,5181,772.003,4-Nov-11,10:59:57 AM,Female,0.00,18,English,4,3,1,2,4,1,1,3,2,4,46,6,SameVocalizer_7,1.00,1305.00,891.00,4439.00,0.00,1,1,1.00,6732,2293.003,4-Nov-11,10:59:57 AM,Female,0.00,18,English,4,3,1,2,4,1,1,3,2,4,46,37,SameVocalizer_8,1.00,487.00,468.00,3307.00,1.00,1,1,1.00,4195,888.003,4-Nov-11,10:59:57 AM,Female,0.00,18,English,4,3,1,2,4,1,1,3,2,4,46,60,SameVocalizer_9,1.00,1818.00,1794.00,5841.00,1.00,1,1,1.00,6155,314.003,4-Nov-11,10:59:57 AM,Female,0.00,18,English,4,3,1,2,4,1,1,3,2,4,46,52,SameVocalizer_10,1.00,466.00,496.00,3212.00,1.00,1,1,1.00,3705,493.003,4-Nov-11,10:59:57 AM,Female,0.00,18,English,4,3,1,2,4,1,1,3,2,4,46,4,SameVocalizer_11,1.00,496.00,636.00,3415.00,1.00,1,1,1.00,5056,1641.003,4-Nov-11,10:59:57 AM,Female,0.00,18,English,4,3,1,2,4,1,1,3,2,4,46,35,SameVocalizer_12,1.00,1752.00,2024.00,5978.00,0.00,1,1,1.00,7361,1383.003,4-Nov-11,10:59:57 AM,Female,0.00,18,English,4,3,1,2,4,1,1,3,2,4,46,51,SameVocalizer_13,1.00,1418.00,1326.00,5210.00,0.00,1,1,1.00,5751,541.003,4-Nov-11,10:59:57 AM,Female,0.00,18,English,4,3,1,2,4,1,1,3,2,4,46,26,SameVocalizer_14,1.00,677.00,679.00,3760.00,0.00,1,1,1.00,4259,499.003,4-Nov-11,10:59:57 AM,Female,0.00,18,English,4,3,1,2,4,1,1,3,2,4,46,10,SameVocalizer_15,1.00,677.00,990.00,4003.00,0.00,1,1,1.00,5195,1192.003,4-Nov-11,10:59:57 AM,Female,0.00,18,English,4,3,1,2,4,1,1,3,2,4,46,56,SameVocalizer_16,1.00,3636.00,4663.00,10677.00,0.00,1,1,1.00,11356,679.003,4-Nov-11,10:59:57 AM,Female,0.00,18,English,4,3,1,2,4,1,1,3,2,4,46,22,SameVocalizer_17,1.00,1635.00,1326.00,5182.00,0.00,1,1,1.00,6474,1292.003,4-Nov-11,10:59:57 AM,Female,0.00,18,English,4,3,1,2,4,1,1,3,2,4,46,33,SameVocalizer_18,1.00,533.00,659.00,3443.00,0.00,1,1,1.00,6532,3089.003,4-Nov-11,10:59:57 AM,Female,0.00,18,English,4,3,1,2,4,1,1,3,2,4,46,55,SameVocalizer_19,1.00,2078.00,1955.00,6320.00,0.00,1,1,1.00,6861,541.003,4-Nov-11,10:59:57 AM,Female,0.00,18,English,4,3,1,2,4,1,1,3,2,4,46,1,SameVocalizer_20,1.00,2050.00,1517.00,5594.00,0.00,1,1,1.00,6963,1369.003,4-Nov-11,10:59:57 AM,Female,0.00,18,English,4,3,1,2,4,1,1,3,2,4,46,25,SameVocalizer_21,1.00,898.00,1517.00,4555.00,0.00,1,2,0.00,8555,4000.003,4-Nov-11,10:59:57 AM,Female,0.00,18,English,4,3,1,2,4,1,1,3,2,4,46,3,SameVocalizer_22,1.00,641.00,389.00,3506.00,0.00,1,1,1.00,5873,2367.003,4-Nov-11,10:59:57 AM,Female,0.00,18,English,4,3,1,2,4,1,1,3,2,4,46,48,SameVocalizer_23,1.00,6076.00,7904.00,16542.00,0.00,1,1,1.00,17539,997.003,4-Nov-11,10:59:57 AM,Female,0.00,18,English,4,3,1,2,4,1,1,3,2,4,46,47,SameVocalizer_24,1.00,1290.00,1262.00,4642.00,0.00,1,1,1.00,5560,918.003,4-Nov-11,10:59:57 AM,Female,0.00,18,English,4,3,1,2,4,1,1,3,2,4,46,38,DifferentVocalizer_1,2.00,893.00,679.00,3725.00,0.00,2,1,0.00,4265,540.003,4-Nov-11,10:59:57 AM,Female,0.00,18,English,4,3,1,2,4,1,1,3,2,4,46,21,DifferentVocalizer_2,2.00,1351.00,1084.00,4823.00,1.00,2,2,1.00,7923,3100.003,4-Nov-11,10:59:57 AM,Female,0.00,18,English,4,3,1,2,4,1,1,3,2,4,46,32,DifferentVocalizer_3,2.00,1351.00,1175.00,5427.00,1.00,2,1,0.00,9261,3834.003,4-Nov-11,10:59:57 AM,Female,0.00,18,English,4,3,1,2,4,1,1,3,2,4,46,23,DifferentVocalizer_4,2.00,891.00,665.00,3640.00,0.00,2,2,1.00,5829,2189.003,4-Nov-11,10:59:57 AM,Female,0.00,18,English,4,3,1,2,4,1,1,3,2,4,46,49,DifferentVocalizer_5,2.00,1818.00,1831.00,5708.00,1.00,2,2,1.00,6652,944.003,4-Nov-11,10:59:57 AM,Female,0.00,18,English,4,3,1,2,4,1,1,3,2,4,46,54,DifferentVocalizer_6,2.00,487.00,371.00,3323.00,1.00,2,2,1.00,3945,622.003,4-Nov-11,10:59:57 AM,Female,0.00,18,English,4,3,1,2,4,1,1,3,2,4,46,31,DifferentVocalizer_7,2.00,2923.00,2782.00,8110.00,1.00,2,1,0.00,9228,1118.003,4-Nov-11,10:59:57 AM,Female,0.00,18,English,4,3,1,2,4,1,1,3,2,4,46,27,DifferentVocalizer_8,2.00,636.00,749.00,3523.00,1.00,2,2,1.00,5511,1988.003,4-Nov-11,10:59:57 AM,Female,0.00,18,English,4,3,1,2,4,1,1,3,2,4,46,39,DifferentVocalizer_9,2.00,1726.00,1134.00,6700.00,0.00,2,2,1.00,7733,1033.003,4-Nov-11,10:59:57 AM,Female,0.00,18,English,4,3,1,2,4,1,1,3,2,4,46,28,DifferentVocalizer_10,2.00,888.00,870.00,4015.00,0.00,2,2,1.00,7412,3397.003,4-Nov-11,10:59:57 AM,Female,0.00,18,English,4,3,1,2,4,1,1,3,2,4,46,46,DifferentVocalizer_11,2.00,677.00,893.00,3824.00,0.00,2,1,0.00,4285,461.003,4-Nov-11,10:59:57 AM,Female,0.00,18,English,4,3,1,2,4,1,1,3,2,4,46,5,DifferentVocalizer_12,2.00,3365.00,4632.00,10086.00,1.00,2,2,1.00,11700,1614.003,4-Nov-11,10:59:57 AM,Female,0.00,18,English,4,3,1,2,4,1,1,3,2,4,46,9,DifferentVocalizer_13,2.00,1326.00,1301.00,4776.00,0.00,2,2,1.00,8327,3551.003,4-Nov-11,10:59:57 AM,Female,0.00,18,English,4,3,1,2,4,1,1,3,2,4,46,30,DifferentVocalizer_14,2.00,1583.00,1517.00,5407.00,0.00,2,1,0.00,6046,639.003,4-Nov-11,10:59:57 AM,Female,0.00,18,English,4,3,1,2,4,1,1,3,2,4,46,59,DifferentVocalizer_15,2.00,487.00,562.00,3424.00,1.00,2,2,1.00,6169,2745.003,4-Nov-11,10:59:57 AM,Female,0.00,18,English,4,3,1,2,4,1,1,3,2,4,46,58,DifferentVocalizer_16,2.00,945.00,1259.00,4568.00,0.00,2,1,0.00,4906,338.003,4-Nov-11,10:59:57 AM,Female,0.00,18,English,4,3,1,2,4,1,1,3,2,4,46,43,DifferentVocalizer_17,2.00,645.00,420.00,3120.00,0.00,2,1,0.00,5166,2046.003,4-Nov-11,10:59:57 AM,Female,0.00,18,English,4,3,1,2,4,1,1,3,2,4,46,57,DifferentVocalizer_18,2.00,1170.00,1173.00,5887.00,0.00,2,2,1.00,6298,411.003,4-Nov-11,10:59:57 AM,Female,0.00,18,English,4,3,1,2,4,1,1,3,2,4,46,14,DifferentVocalizer_19,2.00,1794.00,1044.00,5306.00,0.00,2,1,0.00,7376,2070.003,4-Nov-11,10:59:57 AM,Female,0.00,18,English,4,3,1,2,4,1,1,3,2,4,46,8,DifferentVocalizer_20,2.00,916.00,1046.00,3982.00,0.00,2,2,1.00,5169,1187.003,4-Nov-11,10:59:57 AM,Female,0.00,18,English,4,3,1,2,4,1,1,3,2,4,46,50,DifferentVocalizer_21,2.00,916.00,1046.00,3982.00,0.00,2,2,1.00,4908,926.003,4-Nov-11,10:59:57 AM,Female,0.00,18,English,4,3,1,2,4,1,1,3,2,4,46,44,DifferentVocalizer_22,2.00,916.00,757.00,4117.00,0.00,2,2,1.00,4564,447.003,4-Nov-11,10:59:57 AM,Female,0.00,18,English,4,3,1,2,4,1,1,3,2,4,46,7,DifferentVocalizer_23,2.00,2581.00,2362.00,7251.00,0.00,2,2,1.00,10298,3047.003,4-Nov-11,10:59:57 AM,Female,0.00,18,English,4,3,1,2,4,1,1,3,2,4,46,11,DifferentVocalizer_24,2.00,1290.00,1300.00,4623.00,0.00,2,2,1.00,5427,804.004,4-Nov-11,1:03:57 PM,Male,1.00,18,English,5,3,3,2,4,3,3,4,3,4,55,59,DurationModified_1,0.00,1516.00,1006.00,5927.00,0.00,1,1,1.00,5994,67.004,4-Nov-11,1:03:57 PM,Male,1.00,18,English,5,3,3,2,4,3,3,4,3,4,55,30,DurationModified_2,0.00,1024.00,536.00,4611.00,0.00,1,1,1.00,5807,1196.004,4-Nov-11,1:03:57 PM,Male,1.00,18,English,5,3,3,2,4,3,3,4,3,4,55,24,DurationModified_3,0.00,2756.00,1830.00,8340.00,0.00,1,1,1.00,7616,-724.004,4-Nov-11,1:03:57 PM,Male,1.00,18,English,5,3,3,2,4,3,3,4,3,4,55,26,DurationModified_4,0.00,839.00,973.00,4337.00,0.00,1,1,1.00,4554,217.004,4-Nov-11,1:03:57 PM,Male,1.00,18,English,5,3,3,2,4,3,3,4,3,4,55,28,DurationModified_5,0.00,4599.00,3951.00,10891.00,0.00,1,1,1.00,8698,-2193.004,4-Nov-11,1:03:57 PM,Male,1.00,18,English,5,3,3,2,4,3,3,4,3,4,55,41,DurationModified_6,0.00,420.00,382.00,2895.00,1.00,1,1,1.00,3339,444.004,4-Nov-11,1:03:57 PM,Male,1.00,18,English,5,3,3,2,4,3,3,4,3,4,55,56,DurationModified_7,0.00,2579.00,1297.00,6154.00,0.00,1,1,1.00,6928,774.004,4-Nov-11,1:03:57 PM,Male,1.00,18,English,5,3,3,2,4,3,3,4,3,4,55,13,DurationModified_8,0.00,3662.00,3013.00,9210.00,0.00,1,1,1.00,9378,168.004,4-Nov-11,1:03:57 PM,Male,1.00,18,English,5,3,3,2,4,3,3,4,3,4,55,7,DurationModified_9,0.00,1583.00,1321.00,5504.00,0.00,1,1,1.00,5876,372.004,4-Nov-11,1:03:57 PM,Male,1.00,18,English,5,3,3,2,4,3,3,4,3,4,55,23,DurationModified_10,0.00,2888.00,3611.00,9173.00,1.00,1,1,1.00,6609,-2564.004,4-Nov-11,1:03:57 PM,Male,1.00,18,English,5,3,3,2,4,3,3,4,3,4,55,6,DurationModified_11,0.00,2938.00,3324.00,8308.00,0.00,1,1,1.00,7976,-332.004,4-Nov-11,1:03:57 PM,Male,1.00,18,English,5,3,3,2,4,3,3,4,3,4,55,53,DurationModified_12,0.00,1900.00,1279.00,5285.00,0.00,1,1,1.00,5487,202.004,4-Nov-11,1:03:57 PM,Male,1.00,18,English,5,3,3,2,4,3,3,4,3,4,55,2,SameVocalizer_1,1.00,1163.00,1175.00,5347.00,1.00,1,1,1.00,6050,703.004,4-Nov-11,1:03:57 PM,Male,1.00,18,English,5,3,3,2,4,3,3,4,3,4,55,42,SameVocalizer_2,1.00,950.00,1175.00,4623.00,1.00,1,1,1.00,5683,1060.004,4-Nov-11,1:03:57 PM,Male,1.00,18,English,5,3,3,2,4,3,3,4,3,4,55,29,SameVocalizer_3,1.00,950.00,1084.00,5338.00,1.00,1,1,1.00,5417,79.004,4-Nov-11,1:03:57 PM,Male,1.00,18,English,5,3,3,2,4,3,3,4,3,4,55,38,SameVocalizer_4,1.00,1163.00,1175.00,6044.00,1.00,1,2,0.00,6959,915.004,4-Nov-11,1:03:57 PM,Male,1.00,18,English,5,3,3,2,4,3,3,4,3,4,55,39,SameVocalizer_5,1.00,1250.00,870.00,4270.00,0.00,1,1,1.00,4802,532.004,4-Nov-11,1:03:57 PM,Male,1.00,18,English,5,3,3,2,4,3,3,4,3,4,55,15,SameVocalizer_6,1.00,1305.00,1044.00,4409.00,0.00,1,1,1.00,5078,669.004,4-Nov-11,1:03:57 PM,Male,1.00,18,English,5,3,3,2,4,3,3,4,3,4,55,10,SameVocalizer_7,1.00,1305.00,891.00,4439.00,0.00,1,2,0.00,5404,965.004,4-Nov-11,1:03:57 PM,Male,1.00,18,English,5,3,3,2,4,3,3,4,3,4,55,35,SameVocalizer_8,1.00,487.00,468.00,3307.00,1.00,1,2,0.00,3961,654.004,4-Nov-11,1:03:57 PM,Male,1.00,18,English,5,3,3,2,4,3,3,4,3,4,55,32,SameVocalizer_9,1.00,1818.00,1794.00,5841.00,1.00,1,1,1.00,6323,482.004,4-Nov-11,1:03:57 PM,Male,1.00,18,English,5,3,3,2,4,3,3,4,3,4,55,25,SameVocalizer_10,1.00,466.00,496.00,3212.00,1.00,1,1,1.00,3802,590.004,4-Nov-11,1:03:57 PM,Male,1.00,18,English,5,3,3,2,4,3,3,4,3,4,55,57,SameVocalizer_11,1.00,496.00,636.00,3415.00,1.00,1,1,1.00,4940,1525.004,4-Nov-11,1:03:57 PM,Male,1.00,18,English,5,3,3,2,4,3,3,4,3,4,55,51,SameVocalizer_12,1.00,1752.00,2024.00,5978.00,0.00,1,2,0.00,6374,396.004,4-Nov-11,1:03:57 PM,Male,1.00,18,English,5,3,3,2,4,3,3,4,3,4,55,19,SameVocalizer_13,1.00,1418.00,1326.00,5210.00,0.00,1,1,1.00,5978,768.004,4-Nov-11,1:03:57 PM,Male,1.00,18,English,5,3,3,2,4,3,3,4,3,4,55,21,SameVocalizer_14,1.00,677.00,679.00,3760.00,0.00,1,1,1.00,4102,342.004,4-Nov-11,1:03:57 PM,Male,1.00,18,English,5,3,3,2,4,3,3,4,3,4,55,55,SameVocalizer_15,1.00,677.00,990.00,4003.00,0.00,1,1,1.00,4640,637.004,4-Nov-11,1:03:57 PM,Male,1.00,18,English,5,3,3,2,4,3,3,4,3,4,55,37,SameVocalizer_16,1.00,3636.00,4663.00,10677.00,0.00,1,2,0.00,10543,-134.004,4-Nov-11,1:03:57 PM,Male,1.00,18,English,5,3,3,2,4,3,3,4,3,4,55,45,SameVocalizer_17,1.00,1635.00,1326.00,5182.00,0.00,1,1,1.00,5454,272.004,4-Nov-11,1:03:57 PM,Male,1.00,18,English,5,3,3,2,4,3,3,4,3,4,55,52,SameVocalizer_18,1.00,533.00,659.00,3443.00,0.00,1,1,1.00,5173,1730.004,4-Nov-11,1:03:57 PM,Male,1.00,18,English,5,3,3,2,4,3,3,4,3,4,55,3,SameVocalizer_19,1.00,2078.00,1955.00,6320.00,0.00,1,1,1.00,7045,725.004,4-Nov-11,1:03:57 PM,Male,1.00,18,English,5,3,3,2,4,3,3,4,3,4,55,17,SameVocalizer_20,1.00,2050.00,1517.00,5594.00,0.00,1,1,1.00,6084,490.004,4-Nov-11,1:03:57 PM,Male,1.00,18,English,5,3,3,2,4,3,3,4,3,4,55,40,SameVocalizer_21,1.00,898.00,1517.00,4555.00,0.00,1,1,1.00,5775,1220.004,4-Nov-11,1:03:57 PM,Male,1.00,18,English,5,3,3,2,4,3,3,4,3,4,55,47,SameVocalizer_22,1.00,641.00,389.00,3506.00,0.00,1,1,1.00,6764,3258.004,4-Nov-11,1:03:57 PM,Male,1.00,18,English,5,3,3,2,4,3,3,4,3,4,55,58,SameVocalizer_23,1.00,6076.00,7904.00,16542.00,0.00,1,1,1.00,12502,-4040.004,4-Nov-11,1:03:57 PM,Male,1.00,18,English,5,3,3,2,4,3,3,4,3,4,55,14,SameVocalizer_24,1.00,1290.00,1262.00,4642.00,0.00,1,1,1.00,5044,402.004,4-Nov-11,1:03:57 PM,Male,1.00,18,English,5,3,3,2,4,3,3,4,3,4,55,22,DifferentVocalizer_1,2.00,893.00,679.00,3725.00,0.00,2,1,0.00,4465,740.004,4-Nov-11,1:03:57 PM,Male,1.00,18,English,5,3,3,2,4,3,3,4,3,4,55,48,DifferentVocalizer_2,2.00,1351.00,1084.00,4823.00,1.00,2,2,1.00,8961,4138.004,4-Nov-11,1:03:57 PM,Male,1.00,18,English,5,3,3,2,4,3,3,4,3,4,55,11,DifferentVocalizer_3,2.00,1351.00,1175.00,5427.00,1.00,2,2,1.00,6225,798.004,4-Nov-11,1:03:57 PM,Male,1.00,18,English,5,3,3,2,4,3,3,4,3,4,55,20,DifferentVocalizer_4,2.00,891.00,665.00,3640.00,0.00,2,2,1.00,4419,779.004,4-Nov-11,1:03:57 PM,Male,1.00,18,English,5,3,3,2,4,3,3,4,3,4,55,27,DifferentVocalizer_5,2.00,1818.00,1831.00,5708.00,1.00,2,2,1.00,5987,279.004,4-Nov-11,1:03:57 PM,Male,1.00,18,English,5,3,3,2,4,3,3,4,3,4,55,5,DifferentVocalizer_6,2.00,487.00,371.00,3323.00,1.00,2,2,1.00,4533,1210.004,4-Nov-11,1:03:57 PM,Male,1.00,18,English,5,3,3,2,4,3,3,4,3,4,55,36,DifferentVocalizer_7,2.00,2923.00,2782.00,8110.00,1.00,2,2,1.00,11930,3820.004,4-Nov-11,1:03:57 PM,Male,1.00,18,English,5,3,3,2,4,3,3,4,3,4,55,12,DifferentVocalizer_8,2.00,636.00,749.00,3523.00,1.00,2,1,0.00,4790,1267.004,4-Nov-11,1:03:57 PM,Male,1.00,18,English,5,3,3,2,4,3,3,4,3,4,55,16,DifferentVocalizer_9,2.00,1726.00,1134.00,6700.00,0.00,2,2,1.00,6846,146.004,4-Nov-11,1:03:57 PM,Male,1.00,18,English,5,3,3,2,4,3,3,4,3,4,55,31,DifferentVocalizer_10,2.00,888.00,870.00,4015.00,0.00,2,1,0.00,4584,569.004,4-Nov-11,1:03:57 PM,Male,1.00,18,English,5,3,3,2,4,3,3,4,3,4,55,54,DifferentVocalizer_11,2.00,677.00,893.00,3824.00,0.00,2,2,1.00,4611,787.004,4-Nov-11,1:03:57 PM,Male,1.00,18,English,5,3,3,2,4,3,3,4,3,4,55,49,DifferentVocalizer_12,2.00,3365.00,4632.00,10086.00,1.00,2,2,1.00,5338,-4748.004,4-Nov-11,1:03:57 PM,Male,1.00,18,English,5,3,3,2,4,3,3,4,3,4,55,34,DifferentVocalizer_13,2.00,1326.00,1301.00,4776.00,0.00,2,2,1.00,5385,609.004,4-Nov-11,1:03:57 PM,Male,1.00,18,English,5,3,3,2,4,3,3,4,3,4,55,43,DifferentVocalizer_14,2.00,1583.00,1517.00,5407.00,0.00,2,2,1.00,5911,504.004,4-Nov-11,1:03:57 PM,Male,1.00,18,English,5,3,3,2,4,3,3,4,3,4,55,46,DifferentVocalizer_15,2.00,487.00,562.00,3424.00,1.00,2,2,1.00,4623,1199.004,4-Nov-11,1:03:57 PM,Male,1.00,18,English,5,3,3,2,4,3,3,4,3,4,55,44,DifferentVocalizer_16,2.00,945.00,1259.00,4568.00,0.00,2,1,0.00,4517,-51.004,4-Nov-11,1:03:57 PM,Male,1.00,18,English,5,3,3,2,4,3,3,4,3,4,55,50,DifferentVocalizer_17,2.00,645.00,420.00,3120.00,0.00,2,2,1.00,7597,4477.004,4-Nov-11,1:03:57 PM,Male,1.00,18,English,5,3,3,2,4,3,3,4,3,4,55,4,DifferentVocalizer_18,2.00,1170.00,1173.00,5887.00,0.00,2,2,1.00,5688,-199.004,4-Nov-11,1:03:57 PM,Male,1.00,18,English,5,3,3,2,4,3,3,4,3,4,55,9,DifferentVocalizer_19,2.00,1794.00,1044.00,5306.00,0.00,2,1,0.00,6109,803.004,4-Nov-11,1:03:57 PM,Male,1.00,18,English,5,3,3,2,4,3,3,4,3,4,55,60,DifferentVocalizer_20,2.00,916.00,1046.00,3982.00,0.00,2,2,1.00,4537,555.004,4-Nov-11,1:03:57 PM,Male,1.00,18,English,5,3,3,2,4,3,3,4,3,4,55,1,DifferentVocalizer_21,2.00,916.00,1046.00,3982.00,0.00,2,1,0.00,2583,-1399.004,4-Nov-11,1:03:57 PM,Male,1.00,18,English,5,3,3,2,4,3,3,4,3,4,55,8,DifferentVocalizer_22,2.00,916.00,757.00,4117.00,0.00,2,2,1.00,4452,335.004,4-Nov-11,1:03:57 PM,Male,1.00,18,English,5,3,3,2,4,3,3,4,3,4,55,18,DifferentVocalizer_23,2.00,2581.00,2362.00,7251.00,0.00,2,2,1.00,7406,155.004,4-Nov-11,1:03:57 PM,Male,1.00,18,English,5,3,3,2,4,3,3,4,3,4,55,33,DifferentVocalizer_24,2.00,1290.00,1300.00,4623.00,0.00,2,1,0.00,5793,1170.005,4-Nov-11,2:48:22 PM,Male,1.00,21,Lao,4,1,2,2,3,4,3,4,4,4,35,44,DurationModified_1,0.00,1516.00,1006.00,5927.00,0.00,1,1,1.00,5735,-192.005,4-Nov-11,2:48:22 PM,Male,1.00,21,Lao,4,1,2,2,3,4,3,4,4,4,35,49,DurationModified_2,0.00,1024.00,536.00,4611.00,0.00,1,1,1.00,6415,1804.005,4-Nov-11,2:48:22 PM,Male,1.00,21,Lao,4,1,2,2,3,4,3,4,4,4,35,41,DurationModified_3,0.00,2756.00,1830.00,8340.00,0.00,1,1,1.00,7858,-482.005,4-Nov-11,2:48:22 PM,Male,1.00,21,Lao,4,1,2,2,3,4,3,4,4,4,35,60,DurationModified_4,0.00,839.00,973.00,4337.00,0.00,1,1,1.00,4551,214.005,4-Nov-11,2:48:22 PM,Male,1.00,21,Lao,4,1,2,2,3,4,3,4,4,4,35,10,DurationModified_5,0.00,4599.00,3951.00,10891.00,0.00,1,1,1.00,8325,-2566.005,4-Nov-11,2:48:22 PM,Male,1.00,21,Lao,4,1,2,2,3,4,3,4,4,4,35,32,DurationModified_6,0.00,420.00,382.00,2895.00,1.00,1,1,1.00,3312,417.005,4-Nov-11,2:48:22 PM,Male,1.00,21,Lao,4,1,2,2,3,4,3,4,4,4,35,30,DurationModified_7,0.00,2579.00,1297.00,6154.00,0.00,1,1,1.00,5758,-396.005,4-Nov-11,2:48:22 PM,Male,1.00,21,Lao,4,1,2,2,3,4,3,4,4,4,35,8,DurationModified_8,0.00,3662.00,3013.00,9210.00,0.00,1,1,1.00,9112,-98.005,4-Nov-11,2:48:22 PM,Male,1.00,21,Lao,4,1,2,2,3,4,3,4,4,4,35,28,DurationModified_9,0.00,1583.00,1321.00,5504.00,0.00,1,1,1.00,5295,-209.005,4-Nov-11,2:48:22 PM,Male,1.00,21,Lao,4,1,2,2,3,4,3,4,4,4,35,12,DurationModified_10,0.00,2888.00,3611.00,9173.00,1.00,1,1,1.00,6568,-2605.005,4-Nov-11,2:48:22 PM,Male,1.00,21,Lao,4,1,2,2,3,4,3,4,4,4,35,4,DurationModified_11,0.00,2938.00,3324.00,8308.00,0.00,1,1,1.00,8295,-13.005,4-Nov-11,2:48:22 PM,Male,1.00,21,Lao,4,1,2,2,3,4,3,4,4,4,35,18,DurationModified_12,0.00,1900.00,1279.00,5285.00,0.00,1,1,1.00,5018,-267.005,4-Nov-11,2:48:22 PM,Male,1.00,21,Lao,4,1,2,2,3,4,3,4,4,4,35,5,SameVocalizer_1,1.00,1163.00,1175.00,5347.00,1.00,1,1,1.00,5257,-90.005,4-Nov-11,2:48:22 PM,Male,1.00,21,Lao,4,1,2,2,3,4,3,4,4,4,35,55,SameVocalizer_2,1.00,950.00,1175.00,4623.00,1.00,1,1,1.00,5336,713.005,4-Nov-11,2:48:22 PM,Male,1.00,21,Lao,4,1,2,2,3,4,3,4,4,4,35,6,SameVocalizer_3,1.00,950.00,1084.00,5338.00,1.00,1,1,1.00,5558,220.005,4-Nov-11,2:48:22 PM,Male,1.00,21,Lao,4,1,2,2,3,4,3,4,4,4,35,27,SameVocalizer_4,1.00,1163.00,1175.00,6044.00,1.00,1,1,1.00,5906,-138.005,4-Nov-11,2:48:22 PM,Male,1.00,21,Lao,4,1,2,2,3,4,3,4,4,4,35,29,SameVocalizer_5,1.00,1250.00,870.00,4270.00,0.00,1,1,1.00,6284,2014.005,4-Nov-11,2:48:22 PM,Male,1.00,21,Lao,4,1,2,2,3,4,3,4,4,4,35,22,SameVocalizer_6,1.00,1305.00,1044.00,4409.00,0.00,1,1,1.00,4951,542.005,4-Nov-11,2:48:22 PM,Male,1.00,21,Lao,4,1,2,2,3,4,3,4,4,4,35,56,SameVocalizer_7,1.00,1305.00,891.00,4439.00,0.00,1,2,0.00,5753,1314.005,4-Nov-11,2:48:22 PM,Male,1.00,21,Lao,4,1,2,2,3,4,3,4,4,4,35,54,SameVocalizer_8,1.00,487.00,468.00,3307.00,1.00,1,2,0.00,3590,283.005,4-Nov-11,2:48:22 PM,Male,1.00,21,Lao,4,1,2,2,3,4,3,4,4,4,35,37,SameVocalizer_9,1.00,1818.00,1794.00,5841.00,1.00,1,1,1.00,5639,-202.005,4-Nov-11,2:48:22 PM,Male,1.00,21,Lao,4,1,2,2,3,4,3,4,4,4,35,17,SameVocalizer_10,1.00,466.00,496.00,3212.00,1.00,1,1,1.00,3964,752.005,4-Nov-11,2:48:22 PM,Male,1.00,21,Lao,4,1,2,2,3,4,3,4,4,4,35,34,SameVocalizer_11,1.00,496.00,636.00,3415.00,1.00,1,1,1.00,3706,291.005,4-Nov-11,2:48:22 PM,Male,1.00,21,Lao,4,1,2,2,3,4,3,4,4,4,35,16,SameVocalizer_12,1.00,1752.00,2024.00,5978.00,0.00,1,2,0.00,5288,-690.005,4-Nov-11,2:48:22 PM,Male,1.00,21,Lao,4,1,2,2,3,4,3,4,4,4,35,35,SameVocalizer_13,1.00,1418.00,1326.00,5210.00,0.00,1,1,1.00,5550,340.005,4-Nov-11,2:48:22 PM,Male,1.00,21,Lao,4,1,2,2,3,4,3,4,4,4,35,25,SameVocalizer_14,1.00,677.00,679.00,3760.00,0.00,1,1,1.00,4001,241.005,4-Nov-11,2:48:22 PM,Male,1.00,21,Lao,4,1,2,2,3,4,3,4,4,4,35,38,SameVocalizer_15,1.00,677.00,990.00,4003.00,0.00,1,1,1.00,4236,233.005,4-Nov-11,2:48:22 PM,Male,1.00,21,Lao,4,1,2,2,3,4,3,4,4,4,35,13,SameVocalizer_16,1.00,3636.00,4663.00,10677.00,0.00,1,1,1.00,8056,-2621.005,4-Nov-11,2:48:22 PM,Male,1.00,21,Lao,4,1,2,2,3,4,3,4,4,4,35,48,SameVocalizer_17,1.00,1635.00,1326.00,5182.00,0.00,1,1,1.00,6503,1321.005,4-Nov-11,2:48:22 PM,Male,1.00,21,Lao,4,1,2,2,3,4,3,4,4,4,35,52,SameVocalizer_18,1.00,533.00,659.00,3443.00,0.00,1,2,0.00,3554,111.005,4-Nov-11,2:48:22 PM,Male,1.00,21,Lao,4,1,2,2,3,4,3,4,4,4,35,46,SameVocalizer_19,1.00,2078.00,1955.00,6320.00,0.00,1,1,1.00,6961,641.005,4-Nov-11,2:48:22 PM,Male,1.00,21,Lao,4,1,2,2,3,4,3,4,4,4,35,21,SameVocalizer_20,1.00,2050.00,1517.00,5594.00,0.00,1,1,1.00,5820,226.005,4-Nov-11,2:48:22 PM,Male,1.00,21,Lao,4,1,2,2,3,4,3,4,4,4,35,45,SameVocalizer_21,1.00,898.00,1517.00,4555.00,0.00,1,2,0.00,4385,-170.005,4-Nov-11,2:48:22 PM,Male,1.00,21,Lao,4,1,2,2,3,4,3,4,4,4,35,26,SameVocalizer_22,1.00,641.00,389.00,3506.00,0.00,1,1,1.00,3744,238.005,4-Nov-11,2:48:22 PM,Male,1.00,21,Lao,4,1,2,2,3,4,3,4,4,4,35,31,SameVocalizer_23,1.00,6076.00,7904.00,16542.00,0.00,1,1,1.00,10979,-5563.005,4-Nov-11,2:48:22 PM,Male,1.00,21,Lao,4,1,2,2,3,4,3,4,4,4,35,59,SameVocalizer_24,1.00,1290.00,1262.00,4642.00,0.00,1,2,0.00,5095,453.005,4-Nov-11,2:48:22 PM,Male,1.00,21,Lao,4,1,2,2,3,4,3,4,4,4,35,19,DifferentVocalizer_1,2.00,893.00,679.00,3725.00,0.00,2,1,0.00,5042,1317.005,4-Nov-11,2:48:22 PM,Male,1.00,21,Lao,4,1,2,2,3,4,3,4,4,4,35,1,DifferentVocalizer_2,2.00,1351.00,1084.00,4823.00,1.00,2,1,0.00,4952,129.005,4-Nov-11,2:48:22 PM,Male,1.00,21,Lao,4,1,2,2,3,4,3,4,4,4,35,39,DifferentVocalizer_3,2.00,1351.00,1175.00,5427.00,1.00,2,2,1.00,5782,355.005,4-Nov-11,2:48:22 PM,Male,1.00,21,Lao,4,1,2,2,3,4,3,4,4,4,35,15,DifferentVocalizer_4,2.00,891.00,665.00,3640.00,0.00,2,2,1.00,5596,1956.005,4-Nov-11,2:48:22 PM,Male,1.00,21,Lao,4,1,2,2,3,4,3,4,4,4,35,50,DifferentVocalizer_5,2.00,1818.00,1831.00,5708.00,1.00,2,2,1.00,4809,-899.005,4-Nov-11,2:48:22 PM,Male,1.00,21,Lao,4,1,2,2,3,4,3,4,4,4,35,14,DifferentVocalizer_6,2.00,487.00,371.00,3323.00,1.00,2,2,1.00,3907,584.005,4-Nov-11,2:48:22 PM,Male,1.00,21,Lao,4,1,2,2,3,4,3,4,4,4,35,40,DifferentVocalizer_7,2.00,2923.00,2782.00,8110.00,1.00,2,2,1.00,5959,-2151.005,4-Nov-11,2:48:22 PM,Male,1.00,21,Lao,4,1,2,2,3,4,3,4,4,4,35,53,DifferentVocalizer_8,2.00,636.00,749.00,3523.00,1.00,2,1,0.00,4377,854.005,4-Nov-11,2:48:22 PM,Male,1.00,21,Lao,4,1,2,2,3,4,3,4,4,4,35,2,DifferentVocalizer_9,2.00,1726.00,1134.00,6700.00,0.00,2,2,1.00,6943,243.005,4-Nov-11,2:48:22 PM,Male,1.00,21,Lao,4,1,2,2,3,4,3,4,4,4,35,7,DifferentVocalizer_10,2.00,888.00,870.00,4015.00,0.00,2,2,1.00,4214,199.005,4-Nov-11,2:48:22 PM,Male,1.00,21,Lao,4,1,2,2,3,4,3,4,4,4,35,3,DifferentVocalizer_11,2.00,677.00,893.00,3824.00,0.00,2,1,0.00,4398,574.005,4-Nov-11,2:48:22 PM,Male,1.00,21,Lao,4,1,2,2,3,4,3,4,4,4,35,43,DifferentVocalizer_12,2.00,3365.00,4632.00,10086.00,1.00,2,2,1.00,7198,-2888.005,4-Nov-11,2:48:22 PM,Male,1.00,21,Lao,4,1,2,2,3,4,3,4,4,4,35,23,DifferentVocalizer_13,2.00,1326.00,1301.00,4776.00,0.00,2,2,1.00,5455,679.005,4-Nov-11,2:48:22 PM,Male,1.00,21,Lao,4,1,2,2,3,4,3,4,4,4,35,9,DifferentVocalizer_14,2.00,1583.00,1517.00,5407.00,0.00,2,1,0.00,9334,3927.005,4-Nov-11,2:48:22 PM,Male,1.00,21,Lao,4,1,2,2,3,4,3,4,4,4,35,24,DifferentVocalizer_15,2.00,487.00,562.00,3424.00,1.00,2,2,1.00,6572,3148.005,4-Nov-11,2:48:22 PM,Male,1.00,21,Lao,4,1,2,2,3,4,3,4,4,4,35,47,DifferentVocalizer_16,2.00,945.00,1259.00,4568.00,0.00,2,2,1.00,5176,608.005,4-Nov-11,2:48:22 PM,Male,1.00,21,Lao,4,1,2,2,3,4,3,4,4,4,35,51,DifferentVocalizer_17,2.00,645.00,420.00,3120.00,0.00,2,2,1.00,4679,1559.005,4-Nov-11,2:48:22 PM,Male,1.00,21,Lao,4,1,2,2,3,4,3,4,4,4,35,11,DifferentVocalizer_18,2.00,1170.00,1173.00,5887.00,0.00,2,2,1.00,5494,-393.005,4-Nov-11,2:48:22 PM,Male,1.00,21,Lao,4,1,2,2,3,4,3,4,4,4,35,33,DifferentVocalizer_19,2.00,1794.00,1044.00,5306.00,0.00,2,1,0.00,6234,928.005,4-Nov-11,2:48:22 PM,Male,1.00,21,Lao,4,1,2,2,3,4,3,4,4,4,35,58,DifferentVocalizer_20,2.00,916.00,1046.00,3982.00,0.00,2,2,1.00,3671,-311.005,4-Nov-11,2:48:22 PM,Male,1.00,21,Lao,4,1,2,2,3,4,3,4,4,4,35,36,DifferentVocalizer_21,2.00,916.00,1046.00,3982.00,0.00,2,2,1.00,4039,57.005,4-Nov-11,2:48:22 PM,Male,1.00,21,Lao,4,1,2,2,3,4,3,4,4,4,35,20,DifferentVocalizer_22,2.00,916.00,757.00,4117.00,0.00,2,2,1.00,4300,183.005,4-Nov-11,2:48:22 PM,Male,1.00,21,Lao,4,1,2,2,3,4,3,4,4,4,35,57,DifferentVocalizer_23,2.00,2581.00,2362.00,7251.00,0.00,2,1,0.00,7949,698.005,4-Nov-11,2:48:22 PM,Male,1.00,21,Lao,4,1,2,2,3,4,3,4,4,4,35,42,DifferentVocalizer_24,2.00,1290.00,1300.00,4623.00,0.00,2,2,1.00,8241,3618.006,4-Nov-11,3:14:55 PM,Male,1.00,19,English,2,1,1,2,1,3,1,3,4,3,42,58,DurationModified_1,0.00,1516.00,1006.00,5927.00,0.00,1,1,1.00,5749,-178.006,4-Nov-11,3:14:55 PM,Male,1.00,19,English,2,1,1,2,1,3,1,3,4,3,42,42,DurationModified_2,0.00,1024.00,536.00,4611.00,0.00,1,1,1.00,4815,204.006,4-Nov-11,3:14:55 PM,Male,1.00,19,English,2,1,1,2,1,3,1,3,4,3,42,24,DurationModified_3,0.00,2756.00,1830.00,8340.00,0.00,1,1,1.00,7266,-1074.006,4-Nov-11,3:14:55 PM,Male,1.00,19,English,2,1,1,2,1,3,1,3,4,3,42,34,DurationModified_4,0.00,839.00,973.00,4337.00,0.00,1,1,1.00,4351,14.006,4-Nov-11,3:14:55 PM,Male,1.00,19,English,2,1,1,2,1,3,1,3,4,3,42,50,DurationModified_5,0.00,4599.00,3951.00,10891.00,0.00,1,1,1.00,10850,-41.006,4-Nov-11,3:14:55 PM,Male,1.00,19,English,2,1,1,2,1,3,1,3,4,3,42,54,DurationModified_6,0.00,420.00,382.00,2895.00,1.00,1,1,1.00,3192,297.006,4-Nov-11,3:14:55 PM,Male,1.00,19,English,2,1,1,2,1,3,1,3,4,3,42,55,DurationModified_7,0.00,2579.00,1297.00,6154.00,0.00,1,1,1.00,5673,-481.006,4-Nov-11,3:14:55 PM,Male,1.00,19,English,2,1,1,2,1,3,1,3,4,3,42,40,DurationModified_8,0.00,3662.00,3013.00,9210.00,0.00,1,1,1.00,7326,-1884.006,4-Nov-11,3:14:55 PM,Male,1.00,19,English,2,1,1,2,1,3,1,3,4,3,42,2,DurationModified_9,0.00,1583.00,1321.00,5504.00,0.00,1,1,1.00,5571,67.006,4-Nov-11,3:14:55 PM,Male,1.00,19,English,2,1,1,2,1,3,1,3,4,3,42,29,DurationModified_10,0.00,2888.00,3611.00,9173.00,1.00,1,1,1.00,6467,-2706.006,4-Nov-11,3:14:55 PM,Male,1.00,19,English,2,1,1,2,1,3,1,3,4,3,42,10,DurationModified_11,0.00,2938.00,3324.00,8308.00,0.00,1,1,1.00,8113,-195.006,4-Nov-11,3:14:55 PM,Male,1.00,19,English,2,1,1,2,1,3,1,3,4,3,42,44,DurationModified_12,0.00,1900.00,1279.00,5285.00,0.00,1,1,1.00,4774,-511.006,4-Nov-11,3:14:55 PM,Male,1.00,19,English,2,1,1,2,1,3,1,3,4,3,42,6,SameVocalizer_1,1.00,1163.00,1175.00,5347.00,1.00,1,1,1.00,6091,744.006,4-Nov-11,3:14:55 PM,Male,1.00,19,English,2,1,1,2,1,3,1,3,4,3,42,36,SameVocalizer_2,1.00,950.00,1175.00,4623.00,1.00,1,1,1.00,4883,260.006,4-Nov-11,3:14:55 PM,Male,1.00,19,English,2,1,1,2,1,3,1,3,4,3,42,21,SameVocalizer_3,1.00,950.00,1084.00,5338.00,1.00,1,1,1.00,5513,175.006,4-Nov-11,3:14:55 PM,Male,1.00,19,English,2,1,1,2,1,3,1,3,4,3,42,19,SameVocalizer_4,1.00,1163.00,1175.00,6044.00,1.00,1,1,1.00,6187,143.006,4-Nov-11,3:14:55 PM,Male,1.00,19,English,2,1,1,2,1,3,1,3,4,3,42,20,SameVocalizer_5,1.00,1250.00,870.00,4270.00,0.00,1,1,1.00,5358,1088.006,4-Nov-11,3:14:55 PM,Male,1.00,19,English,2,1,1,2,1,3,1,3,4,3,42,17,SameVocalizer_6,1.00,1305.00,1044.00,4409.00,0.00,1,1,1.00,4585,176.006,4-Nov-11,3:14:55 PM,Male,1.00,19,English,2,1,1,2,1,3,1,3,4,3,42,3,SameVocalizer_7,1.00,1305.00,891.00,4439.00,0.00,1,1,1.00,5272,833.006,4-Nov-11,3:14:55 PM,Male,1.00,19,English,2,1,1,2,1,3,1,3,4,3,42,35,SameVocalizer_8,1.00,487.00,468.00,3307.00,1.00,1,1,1.00,3635,328.006,4-Nov-11,3:14:55 PM,Male,1.00,19,English,2,1,1,2,1,3,1,3,4,3,42,13,SameVocalizer_9,1.00,1818.00,1794.00,5841.00,1.00,1,1,1.00,5344,-497.006,4-Nov-11,3:14:55 PM,Male,1.00,19,English,2,1,1,2,1,3,1,3,4,3,42,56,SameVocalizer_10,1.00,466.00,496.00,3212.00,1.00,1,1,1.00,3421,209.006,4-Nov-11,3:14:55 PM,Male,1.00,19,English,2,1,1,2,1,3,1,3,4,3,42,59,SameVocalizer_11,1.00,496.00,636.00,3415.00,1.00,1,1,1.00,3980,565.006,4-Nov-11,3:14:55 PM,Male,1.00,19,English,2,1,1,2,1,3,1,3,4,3,42,46,SameVocalizer_12,1.00,1752.00,2024.00,5978.00,0.00,1,2,0.00,5642,-336.006,4-Nov-11,3:14:55 PM,Male,1.00,19,English,2,1,1,2,1,3,1,3,4,3,42,9,SameVocalizer_13,1.00,1418.00,1326.00,5210.00,0.00,1,1,1.00,5614,404.006,4-Nov-11,3:14:55 PM,Male,1.00,19,English,2,1,1,2,1,3,1,3,4,3,42,45,SameVocalizer_14,1.00,677.00,679.00,3760.00,0.00,1,1,1.00,4026,266.006,4-Nov-11,3:14:55 PM,Male,1.00,19,English,2,1,1,2,1,3,1,3,4,3,42,31,SameVocalizer_15,1.00,677.00,990.00,4003.00,0.00,1,1,1.00,4231,228.006,4-Nov-11,3:14:55 PM,Male,1.00,19,English,2,1,1,2,1,3,1,3,4,3,42,32,SameVocalizer_16,1.00,3636.00,4663.00,10677.00,0.00,1,1,1.00,7777,-2900.006,4-Nov-11,3:14:55 PM,Male,1.00,19,English,2,1,1,2,1,3,1,3,4,3,42,49,SameVocalizer_17,1.00,1635.00,1326.00,5182.00,0.00,1,1,1.00,5118,-64.006,4-Nov-11,3:14:55 PM,Male,1.00,19,English,2,1,1,2,1,3,1,3,4,3,42,23,SameVocalizer_18,1.00,533.00,659.00,3443.00,0.00,1,1,1.00,4918,1475.006,4-Nov-11,3:14:55 PM,Male,1.00,19,English,2,1,1,2,1,3,1,3,4,3,42,48,SameVocalizer_19,1.00,2078.00,1955.00,6320.00,0.00,1,1,1.00,5706,-614.006,4-Nov-11,3:14:55 PM,Male,1.00,19,English,2,1,1,2,1,3,1,3,4,3,42,5,SameVocalizer_20,1.00,2050.00,1517.00,5594.00,0.00,1,1,1.00,6122,528.006,4-Nov-11,3:14:55 PM,Male,1.00,19,English,2,1,1,2,1,3,1,3,4,3,42,38,SameVocalizer_21,1.00,898.00,1517.00,4555.00,0.00,1,1,1.00,4579,24.006,4-Nov-11,3:14:55 PM,Male,1.00,19,English,2,1,1,2,1,3,1,3,4,3,42,28,SameVocalizer_22,1.00,641.00,389.00,3506.00,0.00,1,1,1.00,3429,-77.006,4-Nov-11,3:14:55 PM,Male,1.00,19,English,2,1,1,2,1,3,1,3,4,3,42,41,SameVocalizer_23,1.00,6076.00,7904.00,16542.00,0.00,1,2,0.00,12312,-4230.006,4-Nov-11,3:14:55 PM,Male,1.00,19,English,2,1,1,2,1,3,1,3,4,3,42,14,SameVocalizer_24,1.00,1290.00,1262.00,4642.00,0.00,1,2,0.00,6551,1909.006,4-Nov-11,3:14:55 PM,Male,1.00,19,English,2,1,1,2,1,3,1,3,4,3,42,12,DifferentVocalizer_1,2.00,893.00,679.00,3725.00,0.00,2,1,0.00,5007,1282.006,4-Nov-11,3:14:55 PM,Male,1.00,19,English,2,1,1,2,1,3,1,3,4,3,42,22,DifferentVocalizer_2,2.00,1351.00,1084.00,4823.00,1.00,2,1,0.00,4812,-11.006,4-Nov-11,3:14:55 PM,Male,1.00,19,English,2,1,1,2,1,3,1,3,4,3,42,57,DifferentVocalizer_3,2.00,1351.00,1175.00,5427.00,1.00,2,1,0.00,6492,1065.006,4-Nov-11,3:14:55 PM,Male,1.00,19,English,2,1,1,2,1,3,1,3,4,3,42,53,DifferentVocalizer_4,2.00,891.00,665.00,3640.00,0.00,2,2,1.00,4274,634.006,4-Nov-11,3:14:55 PM,Male,1.00,19,English,2,1,1,2,1,3,1,3,4,3,42,52,DifferentVocalizer_5,2.00,1818.00,1831.00,5708.00,1.00,2,1,0.00,6061,353.006,4-Nov-11,3:14:55 PM,Male,1.00,19,English,2,1,1,2,1,3,1,3,4,3,42,51,DifferentVocalizer_6,2.00,487.00,371.00,3323.00,1.00,2,1,0.00,5444,2121.006,4-Nov-11,3:14:55 PM,Male,1.00,19,English,2,1,1,2,1,3,1,3,4,3,42,60,DifferentVocalizer_7,2.00,2923.00,2782.00,8110.00,1.00,2,1,0.00,7649,-461.006,4-Nov-11,3:14:55 PM,Male,1.00,19,English,2,1,1,2,1,3,1,3,4,3,42,30,DifferentVocalizer_8,2.00,636.00,749.00,3523.00,1.00,2,1,0.00,4117,594.006,4-Nov-11,3:14:55 PM,Male,1.00,19,English,2,1,1,2,1,3,1,3,4,3,42,15,DifferentVocalizer_9,2.00,1726.00,1134.00,6700.00,0.00,2,2,1.00,6593,-107.006,4-Nov-11,3:14:55 PM,Male,1.00,19,English,2,1,1,2,1,3,1,3,4,3,42,39,DifferentVocalizer_10,2.00,888.00,870.00,4015.00,0.00,2,1,0.00,4801,786.006,4-Nov-11,3:14:55 PM,Male,1.00,19,English,2,1,1,2,1,3,1,3,4,3,42,26,DifferentVocalizer_11,2.00,677.00,893.00,3824.00,0.00,2,1,0.00,4242,418.006,4-Nov-11,3:14:55 PM,Male,1.00,19,English,2,1,1,2,1,3,1,3,4,3,42,43,DifferentVocalizer_12,2.00,3365.00,4632.00,10086.00,1.00,2,1,0.00,7736,-2350.006,4-Nov-11,3:14:55 PM,Male,1.00,19,English,2,1,1,2,1,3,1,3,4,3,42,18,DifferentVocalizer_13,2.00,1326.00,1301.00,4776.00,0.00,2,1,0.00,5044,268.006,4-Nov-11,3:14:55 PM,Male,1.00,19,English,2,1,1,2,1,3,1,3,4,3,42,11,DifferentVocalizer_14,2.00,1583.00,1517.00,5407.00,0.00,2,1,0.00,6627,1220.006,4-Nov-11,3:14:55 PM,Male,1.00,19,English,2,1,1,2,1,3,1,3,4,3,42,4,DifferentVocalizer_15,2.00,487.00,562.00,3424.00,1.00,2,1,0.00,4374,950.006,4-Nov-11,3:14:55 PM,Male,1.00,19,English,2,1,1,2,1,3,1,3,4,3,42,1,DifferentVocalizer_16,2.00,945.00,1259.00,4568.00,0.00,2,1,0.00,5819,1251.006,4-Nov-11,3:14:55 PM,Male,1.00,19,English,2,1,1,2,1,3,1,3,4,3,42,27,DifferentVocalizer_17,2.00,645.00,420.00,3120.00,0.00,2,1,0.00,3992,872.006,4-Nov-11,3:14:55 PM,Male,1.00,19,English,2,1,1,2,1,3,1,3,4,3,42,25,DifferentVocalizer_18,2.00,1170.00,1173.00,5887.00,0.00,2,2,1.00,5272,-615.006,4-Nov-11,3:14:55 PM,Male,1.00,19,English,2,1,1,2,1,3,1,3,4,3,42,7,DifferentVocalizer_19,2.00,1794.00,1044.00,5306.00,0.00,2,1,0.00,5884,578.006,4-Nov-11,3:14:55 PM,Male,1.00,19,English,2,1,1,2,1,3,1,3,4,3,42,33,DifferentVocalizer_20,2.00,916.00,1046.00,3982.00,0.00,2,1,0.00,5356,1374.006,4-Nov-11,3:14:55 PM,Male,1.00,19,English,2,1,1,2,1,3,1,3,4,3,42,37,DifferentVocalizer_21,2.00,916.00,1046.00,3982.00,0.00,2,2,1.00,5644,1662.006,4-Nov-11,3:14:55 PM,Male,1.00,19,English,2,1,1,2,1,3,1,3,4,3,42,47,DifferentVocalizer_22,2.00,916.00,757.00,4117.00,0.00,2,2,1.00,4427,310.006,4-Nov-11,3:14:55 PM,Male,1.00,19,English,2,1,1,2,1,3,1,3,4,3,42,8,DifferentVocalizer_23,2.00,2581.00,2362.00,7251.00,0.00,2,1,0.00,7272,21.006,4-Nov-11,3:14:55 PM,Male,1.00,19,English,2,1,1,2,1,3,1,3,4,3,42,16,DifferentVocalizer_24,2.00,1290.00,1300.00,4623.00,0.00,2,2,1.00,5142,519.007,8-Nov-11,4:31:50 PM,Male,1.00,18,English,3,4,3,3,1,4,3,3,3,3,24,33,DurationModified_1,0.00,1516.00,1006.00,5927.00,0.00,1,1,1.00,7823,1896.007,8-Nov-11,4:31:50 PM,Male,1.00,18,English,3,4,3,3,1,4,3,3,3,3,24,30,DurationModified_2,0.00,1024.00,536.00,4611.00,0.00,1,1,1.00,6486,1875.007,8-Nov-11,4:31:50 PM,Male,1.00,18,English,3,4,3,3,1,4,3,3,3,3,24,34,DurationModified_3,0.00,2756.00,1830.00,8340.00,0.00,1,1,1.00,10183,1843.007,8-Nov-11,4:31:50 PM,Male,1.00,18,English,3,4,3,3,1,4,3,3,3,3,24,9,DurationModified_4,0.00,839.00,973.00,4337.00,0.00,1,1,1.00,6257,1920.007,8-Nov-11,4:31:50 PM,Male,1.00,18,English,3,4,3,3,1,4,3,3,3,3,24,5,DurationModified_5,0.00,4599.00,3951.00,10891.00,0.00,1,1,1.00,12989,2098.007,8-Nov-11,4:31:50 PM,Male,1.00,18,English,3,4,3,3,1,4,3,3,3,3,24,38,DurationModified_6,0.00,420.00,382.00,2895.00,1.00,1,1,1.00,5427,2532.007,8-Nov-11,4:31:50 PM,Male,1.00,18,English,3,4,3,3,1,4,3,3,3,3,24,52,DurationModified_7,0.00,2579.00,1297.00,6154.00,0.00,1,1,1.00,11779,5625.007,8-Nov-11,4:31:50 PM,Male,1.00,18,English,3,4,3,3,1,4,3,3,3,3,24,8,DurationModified_8,0.00,3662.00,3013.00,9210.00,0.00,1,1,1.00,11533,2323.007,8-Nov-11,4:31:50 PM,Male,1.00,18,English,3,4,3,3,1,4,3,3,3,3,24,13,DurationModified_9,0.00,1583.00,1321.00,5504.00,0.00,1,1,1.00,7168,1664.007,8-Nov-11,4:31:50 PM,Male,1.00,18,English,3,4,3,3,1,4,3,3,3,3,24,42,DurationModified_10,0.00,2888.00,3611.00,9173.00,1.00,1,1,1.00,12788,3615.007,8-Nov-11,4:31:50 PM,Male,1.00,18,English,3,4,3,3,1,4,3,3,3,3,24,21,DurationModified_11,0.00,2938.00,3324.00,8308.00,0.00,1,1,1.00,9585,1277.007,8-Nov-11,4:31:50 PM,Male,1.00,18,English,3,4,3,3,1,4,3,3,3,3,24,16,DurationModified_12,0.00,1900.00,1279.00,5285.00,0.00,1,1,1.00,7052,1767.007,8-Nov-11,4:31:50 PM,Male,1.00,18,English,3,4,3,3,1,4,3,3,3,3,24,11,SameVocalizer_1,1.00,1163.00,1175.00,5347.00,1.00,1,1,1.00,7459,2112.007,8-Nov-11,4:31:50 PM,Male,1.00,18,English,3,4,3,3,1,4,3,3,3,3,24,15,SameVocalizer_2,1.00,950.00,1175.00,4623.00,1.00,1,1,1.00,7088,2465.007,8-Nov-11,4:31:50 PM,Male,1.00,18,English,3,4,3,3,1,4,3,3,3,3,24,55,SameVocalizer_3,1.00,950.00,1084.00,5338.00,1.00,1,1,1.00,6717,1379.007,8-Nov-11,4:31:50 PM,Male,1.00,18,English,3,4,3,3,1,4,3,3,3,3,24,14,SameVocalizer_4,1.00,1163.00,1175.00,6044.00,1.00,1,1,1.00,7644,1600.007,8-Nov-11,4:31:50 PM,Male,1.00,18,English,3,4,3,3,1,4,3,3,3,3,24,1,SameVocalizer_5,1.00,1250.00,870.00,4270.00,0.00,1,1,1.00,10810,6540.007,8-Nov-11,4:31:50 PM,Male,1.00,18,English,3,4,3,3,1,4,3,3,3,3,24,47,SameVocalizer_6,1.00,1305.00,1044.00,4409.00,0.00,1,1,1.00,7698,3289.007,8-Nov-11,4:31:50 PM,Male,1.00,18,English,3,4,3,3,1,4,3,3,3,3,24,20,SameVocalizer_7,1.00,1305.00,891.00,4439.00,0.00,1,1,1.00,5405,966.007,8-Nov-11,4:31:50 PM,Male,1.00,18,English,3,4,3,3,1,4,3,3,3,3,24,50,SameVocalizer_8,1.00,487.00,468.00,3307.00,1.00,1,1,1.00,5727,2420.007,8-Nov-11,4:31:50 PM,Male,1.00,18,English,3,4,3,3,1,4,3,3,3,3,24,35,SameVocalizer_9,1.00,1818.00,1794.00,5841.00,1.00,1,1,1.00,7992,2151.007,8-Nov-11,4:31:50 PM,Male,1.00,18,English,3,4,3,3,1,4,3,3,3,3,24,54,SameVocalizer_10,1.00,466.00,496.00,3212.00,1.00,1,1,1.00,5224,2012.007,8-Nov-11,4:31:50 PM,Male,1.00,18,English,3,4,3,3,1,4,3,3,3,3,24,10,SameVocalizer_11,1.00,496.00,636.00,3415.00,1.00,1,1,1.00,5220,1805.007,8-Nov-11,4:31:50 PM,Male,1.00,18,English,3,4,3,3,1,4,3,3,3,3,24,51,SameVocalizer_12,1.00,1752.00,2024.00,5978.00,0.00,1,1,1.00,8742,2764.007,8-Nov-11,4:31:50 PM,Male,1.00,18,English,3,4,3,3,1,4,3,3,3,3,24,25,SameVocalizer_13,1.00,1418.00,1326.00,5210.00,0.00,1,1,1.00,6139,929.007,8-Nov-11,4:31:50 PM,Male,1.00,18,English,3,4,3,3,1,4,3,3,3,3,24,40,SameVocalizer_14,1.00,677.00,679.00,3760.00,0.00,1,1,1.00,7358,3598.007,8-Nov-11,4:31:50 PM,Male,1.00,18,English,3,4,3,3,1,4,3,3,3,3,24,48,SameVocalizer_15,1.00,677.00,990.00,4003.00,0.00,1,1,1.00,7164,3161.007,8-Nov-11,4:31:50 PM,Male,1.00,18,English,3,4,3,3,1,4,3,3,3,3,24,7,SameVocalizer_16,1.00,3636.00,4663.00,10677.00,0.00,1,1,1.00,12766,2089.007,8-Nov-11,4:31:50 PM,Male,1.00,18,English,3,4,3,3,1,4,3,3,3,3,24,26,SameVocalizer_17,1.00,1635.00,1326.00,5182.00,0.00,1,1,1.00,7324,2142.007,8-Nov-11,4:31:50 PM,Male,1.00,18,English,3,4,3,3,1,4,3,3,3,3,24,12,SameVocalizer_18,1.00,533.00,659.00,3443.00,0.00,1,2,0.00,5748,2305.007,8-Nov-11,4:31:50 PM,Male,1.00,18,English,3,4,3,3,1,4,3,3,3,3,24,27,SameVocalizer_19,1.00,2078.00,1955.00,6320.00,0.00,1,1,1.00,9190,2870.007,8-Nov-11,4:31:50 PM,Male,1.00,18,English,3,4,3,3,1,4,3,3,3,3,24,59,SameVocalizer_20,1.00,2050.00,1517.00,5594.00,0.00,1,2,0.00,7657,2063.007,8-Nov-11,4:31:50 PM,Male,1.00,18,English,3,4,3,3,1,4,3,3,3,3,24,3,SameVocalizer_21,1.00,898.00,1517.00,4555.00,0.00,1,2,0.00,14356,9801.007,8-Nov-11,4:31:50 PM,Male,1.00,18,English,3,4,3,3,1,4,3,3,3,3,24,4,SameVocalizer_22,1.00,641.00,389.00,3506.00,0.00,1,1,1.00,5465,1959.007,8-Nov-11,4:31:50 PM,Male,1.00,18,English,3,4,3,3,1,4,3,3,3,3,24,53,SameVocalizer_23,1.00,6076.00,7904.00,16542.00,0.00,1,1,1.00,18681,2139.007,8-Nov-11,4:31:50 PM,Male,1.00,18,English,3,4,3,3,1,4,3,3,3,3,24,37,SameVocalizer_24,1.00,1290.00,1262.00,4642.00,0.00,1,1,1.00,9447,4805.007,8-Nov-11,4:31:50 PM,Male,1.00,18,English,3,4,3,3,1,4,3,3,3,3,24,46,DifferentVocalizer_1,2.00,893.00,679.00,3725.00,0.00,2,1,0.00,6830,3105.007,8-Nov-11,4:31:50 PM,Male,1.00,18,English,3,4,3,3,1,4,3,3,3,3,24,57,DifferentVocalizer_2,2.00,1351.00,1084.00,4823.00,1.00,2,2,1.00,9139,4316.007,8-Nov-11,4:31:50 PM,Male,1.00,18,English,3,4,3,3,1,4,3,3,3,3,24,45,DifferentVocalizer_3,2.00,1351.00,1175.00,5427.00,1.00,2,2,1.00,7639,2212.007,8-Nov-11,4:31:50 PM,Male,1.00,18,English,3,4,3,3,1,4,3,3,3,3,24,49,DifferentVocalizer_4,2.00,891.00,665.00,3640.00,0.00,2,1,0.00,12620,8980.007,8-Nov-11,4:31:50 PM,Male,1.00,18,English,3,4,3,3,1,4,3,3,3,3,24,31,DifferentVocalizer_5,2.00,1818.00,1831.00,5708.00,1.00,2,2,1.00,11383,5675.007,8-Nov-11,4:31:50 PM,Male,1.00,18,English,3,4,3,3,1,4,3,3,3,3,24,28,DifferentVocalizer_6,2.00,487.00,371.00,3323.00,1.00,2,2,1.00,5415,2092.007,8-Nov-11,4:31:50 PM,Male,1.00,18,English,3,4,3,3,1,4,3,3,3,3,24,29,DifferentVocalizer_7,2.00,2923.00,2782.00,8110.00,1.00,2,1,0.00,17049,8939.007,8-Nov-11,4:31:50 PM,Male,1.00,18,English,3,4,3,3,1,4,3,3,3,3,24,58,DifferentVocalizer_8,2.00,636.00,749.00,3523.00,1.00,2,2,1.00,6629,3106.007,8-Nov-11,4:31:50 PM,Male,1.00,18,English,3,4,3,3,1,4,3,3,3,3,24,41,DifferentVocalizer_9,2.00,1726.00,1134.00,6700.00,0.00,2,2,1.00,8851,2151.007,8-Nov-11,4:31:50 PM,Male,1.00,18,English,3,4,3,3,1,4,3,3,3,3,24,56,DifferentVocalizer_10,2.00,888.00,870.00,4015.00,0.00,2,2,1.00,6762,2747.007,8-Nov-11,4:31:50 PM,Male,1.00,18,English,3,4,3,3,1,4,3,3,3,3,24,44,DifferentVocalizer_11,2.00,677.00,893.00,3824.00,0.00,2,2,1.00,6895,3071.007,8-Nov-11,4:31:50 PM,Male,1.00,18,English,3,4,3,3,1,4,3,3,3,3,24,22,DifferentVocalizer_12,2.00,3365.00,4632.00,10086.00,1.00,2,2,1.00,11328,1242.007,8-Nov-11,4:31:50 PM,Male,1.00,18,English,3,4,3,3,1,4,3,3,3,3,24,39,DifferentVocalizer_13,2.00,1326.00,1301.00,4776.00,0.00,2,2,1.00,8588,3812.007,8-Nov-11,4:31:50 PM,Male,1.00,18,English,3,4,3,3,1,4,3,3,3,3,24,24,DifferentVocalizer_14,2.00,1583.00,1517.00,5407.00,0.00,2,2,1.00,7119,1712.007,8-Nov-11,4:31:50 PM,Male,1.00,18,English,3,4,3,3,1,4,3,3,3,3,24,6,DifferentVocalizer_15,2.00,487.00,562.00,3424.00,1.00,2,2,1.00,5321,1897.007,8-Nov-11,4:31:50 PM,Male,1.00,18,English,3,4,3,3,1,4,3,3,3,3,24,17,DifferentVocalizer_16,2.00,945.00,1259.00,4568.00,0.00,2,2,1.00,6749,2181.007,8-Nov-11,4:31:50 PM,Male,1.00,18,English,3,4,3,3,1,4,3,3,3,3,24,19,DifferentVocalizer_17,2.00,645.00,420.00,3120.00,0.00,2,1,0.00,9563,6443.007,8-Nov-11,4:31:50 PM,Male,1.00,18,English,3,4,3,3,1,4,3,3,3,3,24,60,DifferentVocalizer_18,2.00,1170.00,1173.00,5887.00,0.00,2,1,0.00,8077,2190.007,8-Nov-11,4:31:50 PM,Male,1.00,18,English,3,4,3,3,1,4,3,3,3,3,24,36,DifferentVocalizer_19,2.00,1794.00,1044.00,5306.00,0.00,2,1,0.00,13340,8034.007,8-Nov-11,4:31:50 PM,Male,1.00,18,English,3,4,3,3,1,4,3,3,3,3,24,2,DifferentVocalizer_20,2.00,916.00,1046.00,3982.00,0.00,2,2,1.00,6314,2332.007,8-Nov-11,4:31:50 PM,Male,1.00,18,English,3,4,3,3,1,4,3,3,3,3,24,23,DifferentVocalizer_21,2.00,916.00,1046.00,3982.00,0.00,2,2,1.00,5569,1587.007,8-Nov-11,4:31:50 PM,Male,1.00,18,English,3,4,3,3,1,4,3,3,3,3,24,43,DifferentVocalizer_22,2.00,916.00,757.00,4117.00,0.00,2,2,1.00,6352,2235.007,8-Nov-11,4:31:50 PM,Male,1.00,18,English,3,4,3,3,1,4,3,3,3,3,24,18,DifferentVocalizer_23,2.00,2581.00,2362.00,7251.00,0.00,2,2,1.00,8759,1508.007,8-Nov-11,4:31:50 PM,Male,1.00,18,English,3,4,3,3,1,4,3,3,3,3,24,32,DifferentVocalizer_24,2.00,1290.00,1300.00,4623.00,0.00,2,2,1.00,6903,2280.008,9-Nov-11,1:53:23 PM,Female,0.00,17,English,5,2,1,3,4,1,1,4,2,4,59,41,DurationModified_1,0.00,1516.00,1006.00,5927.00,0.00,1,1,1.00,5874,-53.008,9-Nov-11,1:53:23 PM,Female,0.00,17,English,5,2,1,3,4,1,1,4,2,4,59,5,DurationModified_2,0.00,1024.00,536.00,4611.00,0.00,1,1,1.00,5241,630.008,9-Nov-11,1:53:23 PM,Female,0.00,17,English,5,2,1,3,4,1,1,4,2,4,59,27,DurationModified_3,0.00,2756.00,1830.00,8340.00,0.00,1,1,1.00,8542,202.008,9-Nov-11,1:53:23 PM,Female,0.00,17,English,5,2,1,3,4,1,1,4,2,4,59,16,DurationModified_4,0.00,839.00,973.00,4337.00,0.00,1,1,1.00,4599,262.008,9-Nov-11,1:53:23 PM,Female,0.00,17,English,5,2,1,3,4,1,1,4,2,4,59,59,DurationModified_5,0.00,4599.00,3951.00,10891.00,0.00,1,1,1.00,11303,412.008,9-Nov-11,1:53:23 PM,Female,0.00,17,English,5,2,1,3,4,1,1,4,2,4,59,45,DurationModified_6,0.00,420.00,382.00,2895.00,1.00,1,1,1.00,3011,116.008,9-Nov-11,1:53:23 PM,Female,0.00,17,English,5,2,1,3,4,1,1,4,2,4,59,32,DurationModified_7,0.00,2579.00,1297.00,6154.00,0.00,1,1,1.00,6322,168.008,9-Nov-11,1:53:23 PM,Female,0.00,17,English,5,2,1,3,4,1,1,4,2,4,59,10,DurationModified_8,0.00,3662.00,3013.00,9210.00,0.00,1,1,1.00,9404,194.008,9-Nov-11,1:53:23 PM,Female,0.00,17,English,5,2,1,3,4,1,1,4,2,4,59,46,DurationModified_9,0.00,1583.00,1321.00,5504.00,0.00,1,1,1.00,5129,-375.008,9-Nov-11,1:53:23 PM,Female,0.00,17,English,5,2,1,3,4,1,1,4,2,4,59,13,DurationModified_10,0.00,2888.00,3611.00,9173.00,1.00,1,1,1.00,9307,134.008,9-Nov-11,1:53:23 PM,Female,0.00,17,English,5,2,1,3,4,1,1,4,2,4,59,18,DurationModified_11,0.00,2938.00,3324.00,8308.00,0.00,1,1,1.00,7854,-454.008,9-Nov-11,1:53:23 PM,Female,0.00,17,English,5,2,1,3,4,1,1,4,2,4,59,28,DurationModified_12,0.00,1900.00,1279.00,5285.00,0.00,1,1,1.00,5367,82.008,9-Nov-11,1:53:23 PM,Female,0.00,17,English,5,2,1,3,4,1,1,4,2,4,59,30,SameVocalizer_1,1.00,1163.00,1175.00,5347.00,1.00,1,2,0.00,4990,-357.008,9-Nov-11,1:53:23 PM,Female,0.00,17,English,5,2,1,3,4,1,1,4,2,4,59,12,SameVocalizer_2,1.00,950.00,1175.00,4623.00,1.00,1,1,1.00,6448,1825.008,9-Nov-11,1:53:23 PM,Female,0.00,17,English,5,2,1,3,4,1,1,4,2,4,59,6,SameVocalizer_3,1.00,950.00,1084.00,5338.00,1.00,1,1,1.00,6222,884.008,9-Nov-11,1:53:23 PM,Female,0.00,17,English,5,2,1,3,4,1,1,4,2,4,59,3,SameVocalizer_4,1.00,1163.00,1175.00,6044.00,1.00,1,2,0.00,6341,297.008,9-Nov-11,1:53:23 PM,Female,0.00,17,English,5,2,1,3,4,1,1,4,2,4,59,26,SameVocalizer_5,1.00,1250.00,870.00,4270.00,0.00,1,1,1.00,6660,2390.008,9-Nov-11,1:53:23 PM,Female,0.00,17,English,5,2,1,3,4,1,1,4,2,4,59,39,SameVocalizer_6,1.00,1305.00,1044.00,4409.00,0.00,1,1,1.00,4472,63.008,9-Nov-11,1:53:23 PM,Female,0.00,17,English,5,2,1,3,4,1,1,4,2,4,59,1,SameVocalizer_7,1.00,1305.00,891.00,4439.00,0.00,1,1,1.00,7298,2859.008,9-Nov-11,1:53:23 PM,Female,0.00,17,English,5,2,1,3,4,1,1,4,2,4,59,51,SameVocalizer_8,1.00,487.00,468.00,3307.00,1.00,1,2,0.00,4429,1122.008,9-Nov-11,1:53:23 PM,Female,0.00,17,English,5,2,1,3,4,1,1,4,2,4,59,43,SameVocalizer_9,1.00,1818.00,1794.00,5841.00,1.00,1,2,0.00,5909,68.008,9-Nov-11,1:53:23 PM,Female,0.00,17,English,5,2,1,3,4,1,1,4,2,4,59,22,SameVocalizer_10,1.00,466.00,496.00,3212.00,1.00,1,1,1.00,3682,470.008,9-Nov-11,1:53:23 PM,Female,0.00,17,English,5,2,1,3,4,1,1,4,2,4,59,31,SameVocalizer_11,1.00,496.00,636.00,3415.00,1.00,1,1,1.00,4018,603.008,9-Nov-11,1:53:23 PM,Female,0.00,17,English,5,2,1,3,4,1,1,4,2,4,59,57,SameVocalizer_12,1.00,1752.00,2024.00,5978.00,0.00,1,2,0.00,6451,473.008,9-Nov-11,1:53:23 PM,Female,0.00,17,English,5,2,1,3,4,1,1,4,2,4,59,17,SameVocalizer_13,1.00,1418.00,1326.00,5210.00,0.00,1,2,0.00,6975,1765.008,9-Nov-11,1:53:23 PM,Female,0.00,17,English,5,2,1,3,4,1,1,4,2,4,59,58,SameVocalizer_14,1.00,677.00,679.00,3760.00,0.00,1,1,1.00,3882,122.008,9-Nov-11,1:53:23 PM,Female,0.00,17,English,5,2,1,3,4,1,1,4,2,4,59,60,SameVocalizer_15,1.00,677.00,990.00,4003.00,0.00,1,1,1.00,4805,802.008,9-Nov-11,1:53:23 PM,Female,0.00,17,English,5,2,1,3,4,1,1,4,2,4,59,38,SameVocalizer_16,1.00,3636.00,4663.00,10677.00,0.00,1,1,1.00,12945,2268.008,9-Nov-11,1:53:23 PM,Female,0.00,17,English,5,2,1,3,4,1,1,4,2,4,59,33,SameVocalizer_17,1.00,1635.00,1326.00,5182.00,0.00,1,1,1.00,5589,407.008,9-Nov-11,1:53:23 PM,Female,0.00,17,English,5,2,1,3,4,1,1,4,2,4,59,24,SameVocalizer_18,1.00,533.00,659.00,3443.00,0.00,1,1,1.00,5235,1792.008,9-Nov-11,1:53:23 PM,Female,0.00,17,English,5,2,1,3,4,1,1,4,2,4,59,50,SameVocalizer_19,1.00,2078.00,1955.00,6320.00,0.00,1,2,0.00,6545,225.008,9-Nov-11,1:53:23 PM,Female,0.00,17,English,5,2,1,3,4,1,1,4,2,4,59,53,SameVocalizer_20,1.00,2050.00,1517.00,5594.00,0.00,1,1,1.00,5306,-288.008,9-Nov-11,1:53:23 PM,Female,0.00,17,English,5,2,1,3,4,1,1,4,2,4,59,47,SameVocalizer_21,1.00,898.00,1517.00,4555.00,0.00,1,2,0.00,4007,-548.008,9-Nov-11,1:53:23 PM,Female,0.00,17,English,5,2,1,3,4,1,1,4,2,4,59,54,SameVocalizer_22,1.00,641.00,389.00,3506.00,0.00,1,1,1.00,4074,568.008,9-Nov-11,1:53:23 PM,Female,0.00,17,English,5,2,1,3,4,1,1,4,2,4,59,42,SameVocalizer_23,1.00,6076.00,7904.00,16542.00,0.00,1,2,0.00,12157,-4385.008,9-Nov-11,1:53:23 PM,Female,0.00,17,English,5,2,1,3,4,1,1,4,2,4,59,21,SameVocalizer_24,1.00,1290.00,1262.00,4642.00,0.00,1,2,0.00,4813,171.008,9-Nov-11,1:53:23 PM,Female,0.00,17,English,5,2,1,3,4,1,1,4,2,4,59,49,DifferentVocalizer_1,2.00,893.00,679.00,3725.00,0.00,2,1,0.00,4239,514.008,9-Nov-11,1:53:23 PM,Female,0.00,17,English,5,2,1,3,4,1,1,4,2,4,59,4,DifferentVocalizer_2,2.00,1351.00,1084.00,4823.00,1.00,2,2,1.00,6151,1328.008,9-Nov-11,1:53:23 PM,Female,0.00,17,English,5,2,1,3,4,1,1,4,2,4,59,2,DifferentVocalizer_3,2.00,1351.00,1175.00,5427.00,1.00,2,2,1.00,5863,436.008,9-Nov-11,1:53:23 PM,Female,0.00,17,English,5,2,1,3,4,1,1,4,2,4,59,29,DifferentVocalizer_4,2.00,891.00,665.00,3640.00,0.00,2,2,1.00,3799,159.008,9-Nov-11,1:53:23 PM,Female,0.00,17,English,5,2,1,3,4,1,1,4,2,4,59,44,DifferentVocalizer_5,2.00,1818.00,1831.00,5708.00,1.00,2,2,1.00,4816,-892.008,9-Nov-11,1:53:23 PM,Female,0.00,17,English,5,2,1,3,4,1,1,4,2,4,59,25,DifferentVocalizer_6,2.00,487.00,371.00,3323.00,1.00,2,2,1.00,3763,440.008,9-Nov-11,1:53:23 PM,Female,0.00,17,English,5,2,1,3,4,1,1,4,2,4,59,7,DifferentVocalizer_7,2.00,2923.00,2782.00,8110.00,1.00,2,2,1.00,9342,1232.008,9-Nov-11,1:53:23 PM,Female,0.00,17,English,5,2,1,3,4,1,1,4,2,4,59,8,DifferentVocalizer_8,2.00,636.00,749.00,3523.00,1.00,2,2,1.00,4735,1212.008,9-Nov-11,1:53:23 PM,Female,0.00,17,English,5,2,1,3,4,1,1,4,2,4,59,20,DifferentVocalizer_9,2.00,1726.00,1134.00,6700.00,0.00,2,2,1.00,6684,-16.008,9-Nov-11,1:53:23 PM,Female,0.00,17,English,5,2,1,3,4,1,1,4,2,4,59,52,DifferentVocalizer_10,2.00,888.00,870.00,4015.00,0.00,2,2,1.00,3984,-31.008,9-Nov-11,1:53:23 PM,Female,0.00,17,English,5,2,1,3,4,1,1,4,2,4,59,14,DifferentVocalizer_11,2.00,677.00,893.00,3824.00,0.00,2,2,1.00,4544,720.008,9-Nov-11,1:53:23 PM,Female,0.00,17,English,5,2,1,3,4,1,1,4,2,4,59,35,DifferentVocalizer_12,2.00,3365.00,4632.00,10086.00,1.00,2,2,1.00,8553,-1533.008,9-Nov-11,1:53:23 PM,Female,0.00,17,English,5,2,1,3,4,1,1,4,2,4,59,11,DifferentVocalizer_13,2.00,1326.00,1301.00,4776.00,0.00,2,2,1.00,5069,293.008,9-Nov-11,1:53:23 PM,Female,0.00,17,English,5,2,1,3,4,1,1,4,2,4,59,19,DifferentVocalizer_14,2.00,1583.00,1517.00,5407.00,0.00,2,2,1.00,5608,201.008,9-Nov-11,1:53:23 PM,Female,0.00,17,English,5,2,1,3,4,1,1,4,2,4,59,48,DifferentVocalizer_15,2.00,487.00,562.00,3424.00,1.00,2,2,1.00,3683,259.008,9-Nov-11,1:53:23 PM,Female,0.00,17,English,5,2,1,3,4,1,1,4,2,4,59,9,DifferentVocalizer_16,2.00,945.00,1259.00,4568.00,0.00,2,2,1.00,4995,427.008,9-Nov-11,1:53:23 PM,Female,0.00,17,English,5,2,1,3,4,1,1,4,2,4,59,37,DifferentVocalizer_17,2.00,645.00,420.00,3120.00,0.00,2,2,1.00,3319,199.008,9-Nov-11,1:53:23 PM,Female,0.00,17,English,5,2,1,3,4,1,1,4,2,4,59,56,DifferentVocalizer_18,2.00,1170.00,1173.00,5887.00,0.00,2,2,1.00,5570,-317.008,9-Nov-11,1:53:23 PM,Female,0.00,17,English,5,2,1,3,4,1,1,4,2,4,59,23,DifferentVocalizer_19,2.00,1794.00,1044.00,5306.00,0.00,2,1,0.00,7075,1769.008,9-Nov-11,1:53:23 PM,Female,0.00,17,English,5,2,1,3,4,1,1,4,2,4,59,36,DifferentVocalizer_20,2.00,916.00,1046.00,3982.00,0.00,2,2,1.00,4120,138.008,9-Nov-11,1:53:23 PM,Female,0.00,17,English,5,2,1,3,4,1,1,4,2,4,59,34,DifferentVocalizer_21,2.00,916.00,1046.00,3982.00,0.00,2,2,1.00,4170,188.008,9-Nov-11,1:53:23 PM,Female,0.00,17,English,5,2,1,3,4,1,1,4,2,4,59,15,DifferentVocalizer_22,2.00,916.00,757.00,4117.00,0.00,2,2,1.00,4443,326.008,9-Nov-11,1:53:23 PM,Female,0.00,17,English,5,2,1,3,4,1,1,4,2,4,59,40,DifferentVocalizer_23,2.00,2581.00,2362.00,7251.00,0.00,2,2,1.00,5991,-1260.008,9-Nov-11,1:53:23 PM,Female,0.00,17,English,5,2,1,3,4,1,1,4,2,4,59,55,DifferentVocalizer_24,2.00,1290.00,1300.00,4623.00,0.00,2,2,1.00,4120,-503.009,9-Nov-11,2:20:33 PM,Female,0.00,19,Chinese,4,1,1,3,4,1,1,3,3,4,63,29,DurationModified_1,0.00,1516.00,1006.00,5927.00,0.00,1,1,1.00,6713,786.009,9-Nov-11,2:20:33 PM,Female,0.00,19,Chinese,4,1,1,3,4,1,1,3,3,4,63,18,DurationModified_2,0.00,1024.00,536.00,4611.00,0.00,1,1,1.00,6259,1648.009,9-Nov-11,2:20:33 PM,Female,0.00,19,Chinese,4,1,1,3,4,1,1,3,3,4,63,21,DurationModified_3,0.00,2756.00,1830.00,8340.00,0.00,1,1,1.00,9884,1544.009,9-Nov-11,2:20:33 PM,Female,0.00,19,Chinese,4,1,1,3,4,1,1,3,3,4,63,3,DurationModified_4,0.00,839.00,973.00,4337.00,0.00,1,1,1.00,5338,1001.009,9-Nov-11,2:20:33 PM,Female,0.00,19,Chinese,4,1,1,3,4,1,1,3,3,4,63,17,DurationModified_5,0.00,4599.00,3951.00,10891.00,0.00,1,1,1.00,11752,861.009,9-Nov-11,2:20:33 PM,Female,0.00,19,Chinese,4,1,1,3,4,1,1,3,3,4,63,12,DurationModified_6,0.00,420.00,382.00,2895.00,1.00,1,1,1.00,4664,1769.009,9-Nov-11,2:20:33 PM,Female,0.00,19,Chinese,4,1,1,3,4,1,1,3,3,4,63,46,DurationModified_7,0.00,2579.00,1297.00,6154.00,0.00,1,1,1.00,6999,845.009,9-Nov-11,2:20:33 PM,Female,0.00,19,Chinese,4,1,1,3,4,1,1,3,3,4,63,51,DurationModified_8,0.00,3662.00,3013.00,9210.00,0.00,1,1,1.00,9966,756.009,9-Nov-11,2:20:33 PM,Female,0.00,19,Chinese,4,1,1,3,4,1,1,3,3,4,63,24,DurationModified_9,0.00,1583.00,1321.00,5504.00,0.00,1,1,1.00,6391,887.009,9-Nov-11,2:20:33 PM,Female,0.00,19,Chinese,4,1,1,3,4,1,1,3,3,4,63,22,DurationModified_10,0.00,2888.00,3611.00,9173.00,1.00,1,1,1.00,10777,1604.009,9-Nov-11,2:20:33 PM,Female,0.00,19,Chinese,4,1,1,3,4,1,1,3,3,4,63,54,DurationModified_11,0.00,2938.00,3324.00,8308.00,0.00,1,1,1.00,8936,628.009,9-Nov-11,2:20:33 PM,Female,0.00,19,Chinese,4,1,1,3,4,1,1,3,3,4,63,6,DurationModified_12,0.00,1900.00,1279.00,5285.00,0.00,1,1,1.00,5738,453.009,9-Nov-11,2:20:33 PM,Female,0.00,19,Chinese,4,1,1,3,4,1,1,3,3,4,63,5,SameVocalizer_1,1.00,1163.00,1175.00,5347.00,1.00,1,1,1.00,6511,1164.009,9-Nov-11,2:20:33 PM,Female,0.00,19,Chinese,4,1,1,3,4,1,1,3,3,4,63,43,SameVocalizer_2,1.00,950.00,1175.00,4623.00,1.00,1,1,1.00,5884,1261.009,9-Nov-11,2:20:33 PM,Female,0.00,19,Chinese,4,1,1,3,4,1,1,3,3,4,63,37,SameVocalizer_3,1.00,950.00,1084.00,5338.00,1.00,1,1,1.00,5562,224.009,9-Nov-11,2:20:33 PM,Female,0.00,19,Chinese,4,1,1,3,4,1,1,3,3,4,63,16,SameVocalizer_4,1.00,1163.00,1175.00,6044.00,1.00,1,2,0.00,6938,894.009,9-Nov-11,2:20:33 PM,Female,0.00,19,Chinese,4,1,1,3,4,1,1,3,3,4,63,48,SameVocalizer_5,1.00,1250.00,870.00,4270.00,0.00,1,1,1.00,5863,1593.009,9-Nov-11,2:20:33 PM,Female,0.00,19,Chinese,4,1,1,3,4,1,1,3,3,4,63,23,SameVocalizer_6,1.00,1305.00,1044.00,4409.00,0.00,1,1,1.00,6110,1701.009,9-Nov-11,2:20:33 PM,Female,0.00,19,Chinese,4,1,1,3,4,1,1,3,3,4,63,45,SameVocalizer_7,1.00,1305.00,891.00,4439.00,0.00,1,1,1.00,5716,1277.009,9-Nov-11,2:20:33 PM,Female,0.00,19,Chinese,4,1,1,3,4,1,1,3,3,4,63,33,SameVocalizer_8,1.00,487.00,468.00,3307.00,1.00,1,1,1.00,4628,1321.009,9-Nov-11,2:20:33 PM,Female,0.00,19,Chinese,4,1,1,3,4,1,1,3,3,4,63,40,SameVocalizer_9,1.00,1818.00,1794.00,5841.00,1.00,1,1,1.00,9813,3972.009,9-Nov-11,2:20:33 PM,Female,0.00,19,Chinese,4,1,1,3,4,1,1,3,3,4,63,25,SameVocalizer_10,1.00,466.00,496.00,3212.00,1.00,1,1,1.00,3832,620.009,9-Nov-11,2:20:33 PM,Female,0.00,19,Chinese,4,1,1,3,4,1,1,3,3,4,63,8,SameVocalizer_11,1.00,496.00,636.00,3415.00,1.00,1,1,1.00,4655,1240.009,9-Nov-11,2:20:33 PM,Female,0.00,19,Chinese,4,1,1,3,4,1,1,3,3,4,63,19,SameVocalizer_12,1.00,1752.00,2024.00,5978.00,0.00,1,2,0.00,6976,998.009,9-Nov-11,2:20:33 PM,Female,0.00,19,Chinese,4,1,1,3,4,1,1,3,3,4,63,11,SameVocalizer_13,1.00,1418.00,1326.00,5210.00,0.00,1,1,1.00,6591,1381.009,9-Nov-11,2:20:33 PM,Female,0.00,19,Chinese,4,1,1,3,4,1,1,3,3,4,63,1,SameVocalizer_14,1.00,677.00,679.00,3760.00,0.00,1,1,1.00,5557,1797.009,9-Nov-11,2:20:33 PM,Female,0.00,19,Chinese,4,1,1,3,4,1,1,3,3,4,63,44,SameVocalizer_15,1.00,677.00,990.00,4003.00,0.00,1,1,1.00,4268,265.009,9-Nov-11,2:20:33 PM,Female,0.00,19,Chinese,4,1,1,3,4,1,1,3,3,4,63,13,SameVocalizer_16,1.00,3636.00,4663.00,10677.00,0.00,1,2,0.00,12571,1894.009,9-Nov-11,2:20:33 PM,Female,0.00,19,Chinese,4,1,1,3,4,1,1,3,3,4,63,30,SameVocalizer_17,1.00,1635.00,1326.00,5182.00,0.00,1,1,1.00,6890,1708.009,9-Nov-11,2:20:33 PM,Female,0.00,19,Chinese,4,1,1,3,4,1,1,3,3,4,63,39,SameVocalizer_18,1.00,533.00,659.00,3443.00,0.00,1,1,1.00,4699,1256.009,9-Nov-11,2:20:33 PM,Female,0.00,19,Chinese,4,1,1,3,4,1,1,3,3,4,63,26,SameVocalizer_19,1.00,2078.00,1955.00,6320.00,0.00,1,2,0.00,6895,575.009,9-Nov-11,2:20:33 PM,Female,0.00,19,Chinese,4,1,1,3,4,1,1,3,3,4,63,52,SameVocalizer_20,1.00,2050.00,1517.00,5594.00,0.00,1,1,1.00,6519,925.009,9-Nov-11,2:20:33 PM,Female,0.00,19,Chinese,4,1,1,3,4,1,1,3,3,4,63,2,SameVocalizer_21,1.00,898.00,1517.00,4555.00,0.00,1,1,1.00,6321,1766.009,9-Nov-11,2:20:33 PM,Female,0.00,19,Chinese,4,1,1,3,4,1,1,3,3,4,63,41,SameVocalizer_22,1.00,641.00,389.00,3506.00,0.00,1,1,1.00,4485,979.009,9-Nov-11,2:20:33 PM,Female,0.00,19,Chinese,4,1,1,3,4,1,1,3,3,4,63,56,SameVocalizer_23,1.00,6076.00,7904.00,16542.00,0.00,1,1,1.00,18437,1895.009,9-Nov-11,2:20:33 PM,Female,0.00,19,Chinese,4,1,1,3,4,1,1,3,3,4,63,60,SameVocalizer_24,1.00,1290.00,1262.00,4642.00,0.00,1,2,0.00,5839,1197.009,9-Nov-11,2:20:33 PM,Female,0.00,19,Chinese,4,1,1,3,4,1,1,3,3,4,63,50,DifferentVocalizer_1,2.00,893.00,679.00,3725.00,0.00,2,1,0.00,4847,1122.009,9-Nov-11,2:20:33 PM,Female,0.00,19,Chinese,4,1,1,3,4,1,1,3,3,4,63,49,DifferentVocalizer_2,2.00,1351.00,1084.00,4823.00,1.00,2,2,1.00,5259,436.009,9-Nov-11,2:20:33 PM,Female,0.00,19,Chinese,4,1,1,3,4,1,1,3,3,4,63,31,DifferentVocalizer_3,2.00,1351.00,1175.00,5427.00,1.00,2,2,1.00,6176,749.009,9-Nov-11,2:20:33 PM,Female,0.00,19,Chinese,4,1,1,3,4,1,1,3,3,4,63,20,DifferentVocalizer_4,2.00,891.00,665.00,3640.00,0.00,2,2,1.00,4364,724.009,9-Nov-11,2:20:33 PM,Female,0.00,19,Chinese,4,1,1,3,4,1,1,3,3,4,63,47,DifferentVocalizer_5,2.00,1818.00,1831.00,5708.00,1.00,2,1,0.00,6610,902.009,9-Nov-11,2:20:33 PM,Female,0.00,19,Chinese,4,1,1,3,4,1,1,3,3,4,63,10,DifferentVocalizer_6,2.00,487.00,371.00,3323.00,1.00,2,2,1.00,5448,2125.009,9-Nov-11,2:20:33 PM,Female,0.00,19,Chinese,4,1,1,3,4,1,1,3,3,4,63,27,DifferentVocalizer_7,2.00,2923.00,2782.00,8110.00,1.00,2,2,1.00,9480,1370.009,9-Nov-11,2:20:33 PM,Female,0.00,19,Chinese,4,1,1,3,4,1,1,3,3,4,63,15,DifferentVocalizer_8,2.00,636.00,749.00,3523.00,1.00,2,2,1.00,5019,1496.009,9-Nov-11,2:20:33 PM,Female,0.00,19,Chinese,4,1,1,3,4,1,1,3,3,4,63,14,DifferentVocalizer_9,2.00,1726.00,1134.00,6700.00,0.00,2,2,1.00,7516,816.009,9-Nov-11,2:20:33 PM,Female,0.00,19,Chinese,4,1,1,3,4,1,1,3,3,4,63,7,DifferentVocalizer_10,2.00,888.00,870.00,4015.00,0.00,2,2,1.00,5645,1630.009,9-Nov-11,2:20:33 PM,Female,0.00,19,Chinese,4,1,1,3,4,1,1,3,3,4,63,36,DifferentVocalizer_11,2.00,677.00,893.00,3824.00,0.00,2,2,1.00,5065,1241.009,9-Nov-11,2:20:33 PM,Female,0.00,19,Chinese,4,1,1,3,4,1,1,3,3,4,63,59,DifferentVocalizer_12,2.00,3365.00,4632.00,10086.00,1.00,2,2,1.00,11661,1575.009,9-Nov-11,2:20:33 PM,Female,0.00,19,Chinese,4,1,1,3,4,1,1,3,3,4,63,53,DifferentVocalizer_13,2.00,1326.00,1301.00,4776.00,0.00,2,2,1.00,5096,320.009,9-Nov-11,2:20:33 PM,Female,0.00,19,Chinese,4,1,1,3,4,1,1,3,3,4,63,58,DifferentVocalizer_14,2.00,1583.00,1517.00,5407.00,0.00,2,1,0.00,5814,407.009,9-Nov-11,2:20:33 PM,Female,0.00,19,Chinese,4,1,1,3,4,1,1,3,3,4,63,4,DifferentVocalizer_15,2.00,487.00,562.00,3424.00,1.00,2,2,1.00,4948,1524.009,9-Nov-11,2:20:33 PM,Female,0.00,19,Chinese,4,1,1,3,4,1,1,3,3,4,63,55,DifferentVocalizer_16,2.00,945.00,1259.00,4568.00,0.00,2,1,0.00,6021,1453.009,9-Nov-11,2:20:33 PM,Female,0.00,19,Chinese,4,1,1,3,4,1,1,3,3,4,63,35,DifferentVocalizer_17,2.00,645.00,420.00,3120.00,0.00,2,2,1.00,4574,1454.009,9-Nov-11,2:20:33 PM,Female,0.00,19,Chinese,4,1,1,3,4,1,1,3,3,4,63,38,DifferentVocalizer_18,2.00,1170.00,1173.00,5887.00,0.00,2,2,1.00,6013,126.009,9-Nov-11,2:20:33 PM,Female,0.00,19,Chinese,4,1,1,3,4,1,1,3,3,4,63,34,DifferentVocalizer_19,2.00,1794.00,1044.00,5306.00,0.00,2,2,1.00,6067,761.009,9-Nov-11,2:20:33 PM,Female,0.00,19,Chinese,4,1,1,3,4,1,1,3,3,4,63,28,DifferentVocalizer_20,2.00,916.00,1046.00,3982.00,0.00,2,2,1.00,5267,1285.009,9-Nov-11,2:20:33 PM,Female,0.00,19,Chinese,4,1,1,3,4,1,1,3,3,4,63,9,DifferentVocalizer_21,2.00,916.00,1046.00,3982.00,0.00,2,1,0.00,5359,1377.009,9-Nov-11,2:20:33 PM,Female,0.00,19,Chinese,4,1,1,3,4,1,1,3,3,4,63,42,DifferentVocalizer_22,2.00,916.00,757.00,4117.00,0.00,2,2,1.00,5193,1076.009,9-Nov-11,2:20:33 PM,Female,0.00,19,Chinese,4,1,1,3,4,1,1,3,3,4,63,32,DifferentVocalizer_23,2.00,2581.00,2362.00,7251.00,0.00,2,2,1.00,7822,571.009,9-Nov-11,2:20:33 PM,Female,0.00,19,Chinese,4,1,1,3,4,1,1,3,3,4,63,57,DifferentVocalizer_24,2.00,1290.00,1300.00,4623.00,0.00,2,2,1.00,5339,716.0010,9-Nov-11,3:45:02 PM,Male,1.00,18,English,1,4,2,2,1,5,5,4,4,3,31,57,DurationModified_1,0.00,1516.00,1006.00,5927.00,0.00,1,1,1.00,6711,784.0010,9-Nov-11,3:45:02 PM,Male,1.00,18,English,1,4,2,2,1,5,5,4,4,3,31,25,DurationModified_2,0.00,1024.00,536.00,4611.00,0.00,1,1,1.00,5508,897.0010,9-Nov-11,3:45:02 PM,Male,1.00,18,English,1,4,2,2,1,5,5,4,4,3,31,40,DurationModified_3,0.00,2756.00,1830.00,8340.00,0.00,1,1,1.00,8736,396.0010,9-Nov-11,3:45:02 PM,Male,1.00,18,English,1,4,2,2,1,5,5,4,4,3,31,16,DurationModified_4,0.00,839.00,973.00,4337.00,0.00,1,1,1.00,5065,728.0010,9-Nov-11,3:45:02 PM,Male,1.00,18,English,1,4,2,2,1,5,5,4,4,3,31,10,DurationModified_5,0.00,4599.00,3951.00,10891.00,0.00,1,1,1.00,11723,832.0010,9-Nov-11,3:45:02 PM,Male,1.00,18,English,1,4,2,2,1,5,5,4,4,3,31,45,DurationModified_6,0.00,420.00,382.00,2895.00,1.00,1,1,1.00,4273,1378.0010,9-Nov-11,3:45:02 PM,Male,1.00,18,English,1,4,2,2,1,5,5,4,4,3,31,26,DurationModified_7,0.00,2579.00,1297.00,6154.00,0.00,1,1,1.00,6904,750.0010,9-Nov-11,3:45:02 PM,Male,1.00,18,English,1,4,2,2,1,5,5,4,4,3,31,19,DurationModified_8,0.00,3662.00,3013.00,9210.00,0.00,1,1,1.00,9841,631.0010,9-Nov-11,3:45:02 PM,Male,1.00,18,English,1,4,2,2,1,5,5,4,4,3,31,13,DurationModified_9,0.00,1583.00,1321.00,5504.00,0.00,1,1,1.00,6520,1016.0010,9-Nov-11,3:45:02 PM,Male,1.00,18,English,1,4,2,2,1,5,5,4,4,3,31,5,DurationModified_10,0.00,2888.00,3611.00,9173.00,1.00,1,1,1.00,9935,762.0010,9-Nov-11,3:45:02 PM,Male,1.00,18,English,1,4,2,2,1,5,5,4,4,3,31,28,DurationModified_11,0.00,2938.00,3324.00,8308.00,0.00,1,1,1.00,8185,-123.0010,9-Nov-11,3:45:02 PM,Male,1.00,18,English,1,4,2,2,1,5,5,4,4,3,31,56,DurationModified_12,0.00,1900.00,1279.00,5285.00,0.00,1,1,1.00,6324,1039.0010,9-Nov-11,3:45:02 PM,Male,1.00,18,English,1,4,2,2,1,5,5,4,4,3,31,36,SameVocalizer_1,1.00,1163.00,1175.00,5347.00,1.00,1,1,1.00,5004,-343.0010,9-Nov-11,3:45:02 PM,Male,1.00,18,English,1,4,2,2,1,5,5,4,4,3,31,17,SameVocalizer_2,1.00,950.00,1175.00,4623.00,1.00,1,1,1.00,6269,1646.0010,9-Nov-11,3:45:02 PM,Male,1.00,18,English,1,4,2,2,1,5,5,4,4,3,31,1,SameVocalizer_3,1.00,950.00,1084.00,5338.00,1.00,1,1,1.00,5749,411.0010,9-Nov-11,3:45:02 PM,Male,1.00,18,English,1,4,2,2,1,5,5,4,4,3,31,44,SameVocalizer_4,1.00,1163.00,1175.00,6044.00,1.00,1,1,1.00,6533,489.0010,9-Nov-11,3:45:02 PM,Male,1.00,18,English,1,4,2,2,1,5,5,4,4,3,31,29,SameVocalizer_5,1.00,1250.00,870.00,4270.00,0.00,1,1,1.00,5663,1393.0010,9-Nov-11,3:45:02 PM,Male,1.00,18,English,1,4,2,2,1,5,5,4,4,3,31,53,SameVocalizer_6,1.00,1305.00,1044.00,4409.00,0.00,1,1,1.00,5126,717.0010,9-Nov-11,3:45:02 PM,Male,1.00,18,English,1,4,2,2,1,5,5,4,4,3,31,51,SameVocalizer_7,1.00,1305.00,891.00,4439.00,0.00,1,1,1.00,5174,735.0010,9-Nov-11,3:45:02 PM,Male,1.00,18,English,1,4,2,2,1,5,5,4,4,3,31,6,SameVocalizer_8,1.00,487.00,468.00,3307.00,1.00,1,1,1.00,4255,948.0010,9-Nov-11,3:45:02 PM,Male,1.00,18,English,1,4,2,2,1,5,5,4,4,3,31,24,SameVocalizer_9,1.00,1818.00,1794.00,5841.00,1.00,1,1,1.00,6400,559.0010,9-Nov-11,3:45:02 PM,Male,1.00,18,English,1,4,2,2,1,5,5,4,4,3,31,22,SameVocalizer_10,1.00,466.00,496.00,3212.00,1.00,1,1,1.00,3980,768.0010,9-Nov-11,3:45:02 PM,Male,1.00,18,English,1,4,2,2,1,5,5,4,4,3,31,33,SameVocalizer_11,1.00,496.00,636.00,3415.00,1.00,1,1,1.00,4044,629.0010,9-Nov-11,3:45:02 PM,Male,1.00,18,English,1,4,2,2,1,5,5,4,4,3,31,38,SameVocalizer_12,1.00,1752.00,2024.00,5978.00,0.00,1,1,1.00,10453,4475.0010,9-Nov-11,3:45:02 PM,Male,1.00,18,English,1,4,2,2,1,5,5,4,4,3,31,18,SameVocalizer_13,1.00,1418.00,1326.00,5210.00,0.00,1,1,1.00,5729,519.0010,9-Nov-11,3:45:02 PM,Male,1.00,18,English,1,4,2,2,1,5,5,4,4,3,31,52,SameVocalizer_14,1.00,677.00,679.00,3760.00,0.00,1,1,1.00,4656,896.0010,9-Nov-11,3:45:02 PM,Male,1.00,18,English,1,4,2,2,1,5,5,4,4,3,31,39,SameVocalizer_15,1.00,677.00,990.00,4003.00,0.00,1,1,1.00,3950,-53.0010,9-Nov-11,3:45:02 PM,Male,1.00,18,English,1,4,2,2,1,5,5,4,4,3,31,47,SameVocalizer_16,1.00,3636.00,4663.00,10677.00,0.00,1,1,1.00,11674,997.0010,9-Nov-11,3:45:02 PM,Male,1.00,18,English,1,4,2,2,1,5,5,4,4,3,31,2,SameVocalizer_17,1.00,1635.00,1326.00,5182.00,0.00,1,1,1.00,6188,1006.0010,9-Nov-11,3:45:02 PM,Male,1.00,18,English,1,4,2,2,1,5,5,4,4,3,31,41,SameVocalizer_18,1.00,533.00,659.00,3443.00,0.00,1,1,1.00,4355,912.0010,9-Nov-11,3:45:02 PM,Male,1.00,18,English,1,4,2,2,1,5,5,4,4,3,31,11,SameVocalizer_19,1.00,2078.00,1955.00,6320.00,0.00,1,1,1.00,7110,790.0010,9-Nov-11,3:45:02 PM,Male,1.00,18,English,1,4,2,2,1,5,5,4,4,3,31,43,SameVocalizer_20,1.00,2050.00,1517.00,5594.00,0.00,1,1,1.00,6617,1023.0010,9-Nov-11,3:45:02 PM,Male,1.00,18,English,1,4,2,2,1,5,5,4,4,3,31,27,SameVocalizer_21,1.00,898.00,1517.00,4555.00,0.00,1,1,1.00,13384,8829.0010,9-Nov-11,3:45:02 PM,Male,1.00,18,English,1,4,2,2,1,5,5,4,4,3,31,3,SameVocalizer_22,1.00,641.00,389.00,3506.00,0.00,1,1,1.00,4307,801.0010,9-Nov-11,3:45:02 PM,Male,1.00,18,English,1,4,2,2,1,5,5,4,4,3,31,37,SameVocalizer_23,1.00,6076.00,7904.00,16542.00,0.00,1,1,1.00,17531,989.0010,9-Nov-11,3:45:02 PM,Male,1.00,18,English,1,4,2,2,1,5,5,4,4,3,31,9,SameVocalizer_24,1.00,1290.00,1262.00,4642.00,0.00,1,1,1.00,5400,758.0010,9-Nov-11,3:45:02 PM,Male,1.00,18,English,1,4,2,2,1,5,5,4,4,3,31,49,DifferentVocalizer_1,2.00,893.00,679.00,3725.00,0.00,2,1,0.00,5038,1313.0010,9-Nov-11,3:45:02 PM,Male,1.00,18,English,1,4,2,2,1,5,5,4,4,3,31,21,DifferentVocalizer_2,2.00,1351.00,1084.00,4823.00,1.00,2,1,0.00,5347,524.0010,9-Nov-11,3:45:02 PM,Male,1.00,18,English,1,4,2,2,1,5,5,4,4,3,31,34,DifferentVocalizer_3,2.00,1351.00,1175.00,5427.00,1.00,2,1,0.00,5517,90.0010,9-Nov-11,3:45:02 PM,Male,1.00,18,English,1,4,2,2,1,5,5,4,4,3,31,12,DifferentVocalizer_4,2.00,891.00,665.00,3640.00,0.00,2,2,1.00,5988,2348.0010,9-Nov-11,3:45:02 PM,Male,1.00,18,English,1,4,2,2,1,5,5,4,4,3,31,60,DifferentVocalizer_5,2.00,1818.00,1831.00,5708.00,1.00,2,2,1.00,6694,986.0010,9-Nov-11,3:45:02 PM,Male,1.00,18,English,1,4,2,2,1,5,5,4,4,3,31,20,DifferentVocalizer_6,2.00,487.00,371.00,3323.00,1.00,2,2,1.00,9382,6059.0010,9-Nov-11,3:45:02 PM,Male,1.00,18,English,1,4,2,2,1,5,5,4,4,3,31,50,DifferentVocalizer_7,2.00,2923.00,2782.00,8110.00,1.00,2,1,0.00,8830,720.0010,9-Nov-11,3:45:02 PM,Male,1.00,18,English,1,4,2,2,1,5,5,4,4,3,31,58,DifferentVocalizer_8,2.00,636.00,749.00,3523.00,1.00,2,1,0.00,5017,1494.0010,9-Nov-11,3:45:02 PM,Male,1.00,18,English,1,4,2,2,1,5,5,4,4,3,31,55,DifferentVocalizer_9,2.00,1726.00,1134.00,6700.00,0.00,2,2,1.00,7461,761.0010,9-Nov-11,3:45:02 PM,Male,1.00,18,English,1,4,2,2,1,5,5,4,4,3,31,7,DifferentVocalizer_10,2.00,888.00,870.00,4015.00,0.00,2,2,1.00,5401,1386.0010,9-Nov-11,3:45:02 PM,Male,1.00,18,English,1,4,2,2,1,5,5,4,4,3,31,54,DifferentVocalizer_11,2.00,677.00,893.00,3824.00,0.00,2,1,0.00,4792,968.0010,9-Nov-11,3:45:02 PM,Male,1.00,18,English,1,4,2,2,1,5,5,4,4,3,31,32,DifferentVocalizer_12,2.00,3365.00,4632.00,10086.00,1.00,2,1,0.00,11347,1261.0010,9-Nov-11,3:45:02 PM,Male,1.00,18,English,1,4,2,2,1,5,5,4,4,3,31,48,DifferentVocalizer_13,2.00,1326.00,1301.00,4776.00,0.00,2,2,1.00,7797,3021.0010,9-Nov-11,3:45:02 PM,Male,1.00,18,English,1,4,2,2,1,5,5,4,4,3,31,14,DifferentVocalizer_14,2.00,1583.00,1517.00,5407.00,0.00,2,1,0.00,10132,4725.0010,9-Nov-11,3:45:02 PM,Male,1.00,18,English,1,4,2,2,1,5,5,4,4,3,31,8,DifferentVocalizer_15,2.00,487.00,562.00,3424.00,1.00,2,2,1.00,4259,835.0010,9-Nov-11,3:45:02 PM,Male,1.00,18,English,1,4,2,2,1,5,5,4,4,3,31,46,DifferentVocalizer_16,2.00,945.00,1259.00,4568.00,0.00,2,1,0.00,5824,1256.0010,9-Nov-11,3:45:02 PM,Male,1.00,18,English,1,4,2,2,1,5,5,4,4,3,31,35,DifferentVocalizer_17,2.00,645.00,420.00,3120.00,0.00,2,1,0.00,3881,761.0010,9-Nov-11,3:45:02 PM,Male,1.00,18,English,1,4,2,2,1,5,5,4,4,3,31,23,DifferentVocalizer_18,2.00,1170.00,1173.00,5887.00,0.00,2,1,0.00,6616,729.0010,9-Nov-11,3:45:02 PM,Male,1.00,18,English,1,4,2,2,1,5,5,4,4,3,31,4,DifferentVocalizer_19,2.00,1794.00,1044.00,5306.00,0.00,2,1,0.00,6301,995.0010,9-Nov-11,3:45:02 PM,Male,1.00,18,English,1,4,2,2,1,5,5,4,4,3,31,15,DifferentVocalizer_20,2.00,916.00,1046.00,3982.00,0.00,2,2,1.00,4679,697.0010,9-Nov-11,3:45:02 PM,Male,1.00,18,English,1,4,2,2,1,5,5,4,4,3,31,31,DifferentVocalizer_21,2.00,916.00,1046.00,3982.00,0.00,2,2,1.00,4428,446.0010,9-Nov-11,3:45:02 PM,Male,1.00,18,English,1,4,2,2,1,5,5,4,4,3,31,30,DifferentVocalizer_22,2.00,916.00,757.00,4117.00,0.00,2,2,1.00,5304,1187.0010,9-Nov-11,3:45:02 PM,Male,1.00,18,English,1,4,2,2,1,5,5,4,4,3,31,42,DifferentVocalizer_23,2.00,2581.00,2362.00,7251.00,0.00,2,1,0.00,6455,-796.0010,9-Nov-11,3:45:02 PM,Male,1.00,18,English,1,4,2,2,1,5,5,4,4,3,31,59,DifferentVocalizer_24,2.00,1290.00,1300.00,4623.00,0.00,2,2,1.00,5179,556.0011,10-Nov-11,4:47:57 PM,Male,1.00,23,English,3,2,1,3,2,5,4,4,3,4,41,13,DurationModified_1,0.00,1516.00,1006.00,5927.00,0.00,1,1,1.00,6087,160.0011,10-Nov-11,4:47:57 PM,Male,1.00,23,English,3,2,1,3,2,5,4,4,3,4,41,55,DurationModified_2,0.00,1024.00,536.00,4611.00,0.00,1,1,1.00,5612,1001.0011,10-Nov-11,4:47:57 PM,Male,1.00,23,English,3,2,1,3,2,5,4,4,3,4,41,16,DurationModified_3,0.00,2756.00,1830.00,8340.00,0.00,1,1,1.00,8384,44.0011,10-Nov-11,4:47:57 PM,Male,1.00,23,English,3,2,1,3,2,5,4,4,3,4,41,3,DurationModified_4,0.00,839.00,973.00,4337.00,0.00,1,1,1.00,5389,1052.0011,10-Nov-11,4:47:57 PM,Male,1.00,23,English,3,2,1,3,2,5,4,4,3,4,41,4,DurationModified_5,0.00,4599.00,3951.00,10891.00,0.00,1,1,1.00,11038,147.0011,10-Nov-11,4:47:57 PM,Male,1.00,23,English,3,2,1,3,2,5,4,4,3,4,41,23,DurationModified_6,0.00,420.00,382.00,2895.00,1.00,1,1,1.00,3795,900.0011,10-Nov-11,4:47:57 PM,Male,1.00,23,English,3,2,1,3,2,5,4,4,3,4,41,28,DurationModified_7,0.00,2579.00,1297.00,6154.00,0.00,1,1,1.00,6876,722.0011,10-Nov-11,4:47:57 PM,Male,1.00,23,English,3,2,1,3,2,5,4,4,3,4,41,36,DurationModified_8,0.00,3662.00,3013.00,9210.00,0.00,1,1,1.00,9875,665.0011,10-Nov-11,4:47:57 PM,Male,1.00,23,English,3,2,1,3,2,5,4,4,3,4,41,51,DurationModified_9,0.00,1583.00,1321.00,5504.00,0.00,1,1,1.00,6020,516.0011,10-Nov-11,4:47:57 PM,Male,1.00,23,English,3,2,1,3,2,5,4,4,3,4,41,25,DurationModified_10,0.00,2888.00,3611.00,9173.00,1.00,1,1,1.00,9714,541.0011,10-Nov-11,4:47:57 PM,Male,1.00,23,English,3,2,1,3,2,5,4,4,3,4,41,43,DurationModified_11,0.00,2938.00,3324.00,8308.00,0.00,1,1,1.00,8789,481.0011,10-Nov-11,4:47:57 PM,Male,1.00,23,English,3,2,1,3,2,5,4,4,3,4,41,45,DurationModified_12,0.00,1900.00,1279.00,5285.00,0.00,1,1,1.00,5471,186.0011,10-Nov-11,4:47:57 PM,Male,1.00,23,English,3,2,1,3,2,5,4,4,3,4,41,60,SameVocalizer_1,1.00,1163.00,1175.00,5347.00,1.00,1,1,1.00,5575,228.0011,10-Nov-11,4:47:57 PM,Male,1.00,23,English,3,2,1,3,2,5,4,4,3,4,41,6,SameVocalizer_2,1.00,950.00,1175.00,4623.00,1.00,1,1,1.00,6501,1878.0011,10-Nov-11,4:47:57 PM,Male,1.00,23,English,3,2,1,3,2,5,4,4,3,4,41,26,SameVocalizer_3,1.00,950.00,1084.00,5338.00,1.00,1,1,1.00,5776,438.0011,10-Nov-11,4:47:57 PM,Male,1.00,23,English,3,2,1,3,2,5,4,4,3,4,41,33,SameVocalizer_4,1.00,1163.00,1175.00,6044.00,1.00,1,1,1.00,6944,900.0011,10-Nov-11,4:47:57 PM,Male,1.00,23,English,3,2,1,3,2,5,4,4,3,4,41,53,SameVocalizer_5,1.00,1250.00,870.00,4270.00,0.00,1,1,1.00,5987,1717.0011,10-Nov-11,4:47:57 PM,Male,1.00,23,English,3,2,1,3,2,5,4,4,3,4,41,37,SameVocalizer_6,1.00,1305.00,1044.00,4409.00,0.00,1,1,1.00,5070,661.0011,10-Nov-11,4:47:57 PM,Male,1.00,23,English,3,2,1,3,2,5,4,4,3,4,41,7,SameVocalizer_7,1.00,1305.00,891.00,4439.00,0.00,1,2,0.00,5953,1514.0011,10-Nov-11,4:47:57 PM,Male,1.00,23,English,3,2,1,3,2,5,4,4,3,4,41,30,SameVocalizer_8,1.00,487.00,468.00,3307.00,1.00,1,2,0.00,4548,1241.0011,10-Nov-11,4:47:57 PM,Male,1.00,23,English,3,2,1,3,2,5,4,4,3,4,41,59,SameVocalizer_9,1.00,1818.00,1794.00,5841.00,1.00,1,1,1.00,6364,523.0011,10-Nov-11,4:47:57 PM,Male,1.00,23,English,3,2,1,3,2,5,4,4,3,4,41,12,SameVocalizer_10,1.00,466.00,496.00,3212.00,1.00,1,1,1.00,4049,837.0011,10-Nov-11,4:47:57 PM,Male,1.00,23,English,3,2,1,3,2,5,4,4,3,4,41,41,SameVocalizer_11,1.00,496.00,636.00,3415.00,1.00,1,1,1.00,3746,331.0011,10-Nov-11,4:47:57 PM,Male,1.00,23,English,3,2,1,3,2,5,4,4,3,4,41,5,SameVocalizer_12,1.00,1752.00,2024.00,5978.00,0.00,1,1,1.00,6762,784.0011,10-Nov-11,4:47:57 PM,Male,1.00,23,English,3,2,1,3,2,5,4,4,3,4,41,32,SameVocalizer_13,1.00,1418.00,1326.00,5210.00,0.00,1,1,1.00,5814,604.0011,10-Nov-11,4:47:57 PM,Male,1.00,23,English,3,2,1,3,2,5,4,4,3,4,41,57,SameVocalizer_14,1.00,677.00,679.00,3760.00,0.00,1,1,1.00,4114,354.0011,10-Nov-11,4:47:57 PM,Male,1.00,23,English,3,2,1,3,2,5,4,4,3,4,41,42,SameVocalizer_15,1.00,677.00,990.00,4003.00,0.00,1,1,1.00,4262,259.0011,10-Nov-11,4:47:57 PM,Male,1.00,23,English,3,2,1,3,2,5,4,4,3,4,41,52,SameVocalizer_16,1.00,3636.00,4663.00,10677.00,0.00,1,1,1.00,11190,513.0011,10-Nov-11,4:47:57 PM,Male,1.00,23,English,3,2,1,3,2,5,4,4,3,4,41,15,SameVocalizer_17,1.00,1635.00,1326.00,5182.00,0.00,1,1,1.00,5429,247.0011,10-Nov-11,4:47:57 PM,Male,1.00,23,English,3,2,1,3,2,5,4,4,3,4,41,47,SameVocalizer_18,1.00,533.00,659.00,3443.00,0.00,1,1,1.00,4438,995.0011,10-Nov-11,4:47:57 PM,Male,1.00,23,English,3,2,1,3,2,5,4,4,3,4,41,1,SameVocalizer_19,1.00,2078.00,1955.00,6320.00,0.00,1,1,1.00,6868,548.0011,10-Nov-11,4:47:57 PM,Male,1.00,23,English,3,2,1,3,2,5,4,4,3,4,41,8,SameVocalizer_20,1.00,2050.00,1517.00,5594.00,0.00,1,1,1.00,6006,412.0011,10-Nov-11,4:47:57 PM,Male,1.00,23,English,3,2,1,3,2,5,4,4,3,4,41,10,SameVocalizer_21,1.00,898.00,1517.00,4555.00,0.00,1,2,0.00,5452,897.0011,10-Nov-11,4:47:57 PM,Male,1.00,23,English,3,2,1,3,2,5,4,4,3,4,41,46,SameVocalizer_22,1.00,641.00,389.00,3506.00,0.00,1,2,0.00,5223,1717.0011,10-Nov-11,4:47:57 PM,Male,1.00,23,English,3,2,1,3,2,5,4,4,3,4,41,2,SameVocalizer_23,1.00,6076.00,7904.00,16542.00,0.00,1,2,0.00,17045,503.0011,10-Nov-11,4:47:57 PM,Male,1.00,23,English,3,2,1,3,2,5,4,4,3,4,41,9,SameVocalizer_24,1.00,1290.00,1262.00,4642.00,0.00,1,2,0.00,5589,947.0011,10-Nov-11,4:47:57 PM,Male,1.00,23,English,3,2,1,3,2,5,4,4,3,4,41,34,DifferentVocalizer_1,2.00,893.00,679.00,3725.00,0.00,2,1,0.00,5760,2035.0011,10-Nov-11,4:47:57 PM,Male,1.00,23,English,3,2,1,3,2,5,4,4,3,4,41,20,DifferentVocalizer_2,2.00,1351.00,1084.00,4823.00,1.00,2,2,1.00,5819,996.0011,10-Nov-11,4:47:57 PM,Male,1.00,23,English,3,2,1,3,2,5,4,4,3,4,41,29,DifferentVocalizer_3,2.00,1351.00,1175.00,5427.00,1.00,2,1,0.00,6120,693.0011,10-Nov-11,4:47:57 PM,Male,1.00,23,English,3,2,1,3,2,5,4,4,3,4,41,24,DifferentVocalizer_4,2.00,891.00,665.00,3640.00,0.00,2,2,1.00,4500,860.0011,10-Nov-11,4:47:57 PM,Male,1.00,23,English,3,2,1,3,2,5,4,4,3,4,41,21,DifferentVocalizer_5,2.00,1818.00,1831.00,5708.00,1.00,2,2,1.00,5849,141.0011,10-Nov-11,4:47:57 PM,Male,1.00,23,English,3,2,1,3,2,5,4,4,3,4,41,54,DifferentVocalizer_6,2.00,487.00,371.00,3323.00,1.00,2,2,1.00,4252,929.0011,10-Nov-11,4:47:57 PM,Male,1.00,23,English,3,2,1,3,2,5,4,4,3,4,41,48,DifferentVocalizer_7,2.00,2923.00,2782.00,8110.00,1.00,2,1,0.00,8307,197.0011,10-Nov-11,4:47:57 PM,Male,1.00,23,English,3,2,1,3,2,5,4,4,3,4,41,14,DifferentVocalizer_8,2.00,636.00,749.00,3523.00,1.00,2,1,0.00,4414,891.0011,10-Nov-11,4:47:57 PM,Male,1.00,23,English,3,2,1,3,2,5,4,4,3,4,41,35,DifferentVocalizer_9,2.00,1726.00,1134.00,6700.00,0.00,2,2,1.00,7138,438.0011,10-Nov-11,4:47:57 PM,Male,1.00,23,English,3,2,1,3,2,5,4,4,3,4,41,49,DifferentVocalizer_10,2.00,888.00,870.00,4015.00,0.00,2,2,1.00,5666,1651.0011,10-Nov-11,4:47:57 PM,Male,1.00,23,English,3,2,1,3,2,5,4,4,3,4,41,40,DifferentVocalizer_11,2.00,677.00,893.00,3824.00,0.00,2,1,0.00,5260,1436.0011,10-Nov-11,4:47:57 PM,Male,1.00,23,English,3,2,1,3,2,5,4,4,3,4,41,38,DifferentVocalizer_12,2.00,3365.00,4632.00,10086.00,1.00,2,2,1.00,11000,914.0011,10-Nov-11,4:47:57 PM,Male,1.00,23,English,3,2,1,3,2,5,4,4,3,4,41,31,DifferentVocalizer_13,2.00,1326.00,1301.00,4776.00,0.00,2,2,1.00,5410,634.0011,10-Nov-11,4:47:57 PM,Male,1.00,23,English,3,2,1,3,2,5,4,4,3,4,41,19,DifferentVocalizer_14,2.00,1583.00,1517.00,5407.00,0.00,2,1,0.00,6033,626.0011,10-Nov-11,4:47:57 PM,Male,1.00,23,English,3,2,1,3,2,5,4,4,3,4,41,39,DifferentVocalizer_15,2.00,487.00,562.00,3424.00,1.00,2,2,1.00,4204,780.0011,10-Nov-11,4:47:57 PM,Male,1.00,23,English,3,2,1,3,2,5,4,4,3,4,41,17,DifferentVocalizer_16,2.00,945.00,1259.00,4568.00,0.00,2,2,1.00,5247,679.0011,10-Nov-11,4:47:57 PM,Male,1.00,23,English,3,2,1,3,2,5,4,4,3,4,41,56,DifferentVocalizer_17,2.00,645.00,420.00,3120.00,0.00,2,2,1.00,4719,1599.0011,10-Nov-11,4:47:57 PM,Male,1.00,23,English,3,2,1,3,2,5,4,4,3,4,41,50,DifferentVocalizer_18,2.00,1170.00,1173.00,5887.00,0.00,2,2,1.00,6982,1095.0011,10-Nov-11,4:47:57 PM,Male,1.00,23,English,3,2,1,3,2,5,4,4,3,4,41,44,DifferentVocalizer_19,2.00,1794.00,1044.00,5306.00,0.00,2,2,1.00,6388,1082.0011,10-Nov-11,4:47:57 PM,Male,1.00,23,English,3,2,1,3,2,5,4,4,3,4,41,22,DifferentVocalizer_20,2.00,916.00,1046.00,3982.00,0.00,2,2,1.00,4691,709.0011,10-Nov-11,4:47:57 PM,Male,1.00,23,English,3,2,1,3,2,5,4,4,3,4,41,11,DifferentVocalizer_21,2.00,916.00,1046.00,3982.00,0.00,2,2,1.00,4666,684.0011,10-Nov-11,4:47:57 PM,Male,1.00,23,English,3,2,1,3,2,5,4,4,3,4,41,18,DifferentVocalizer_22,2.00,916.00,757.00,4117.00,0.00,2,2,1.00,4662,545.0011,10-Nov-11,4:47:57 PM,Male,1.00,23,English,3,2,1,3,2,5,4,4,3,4,41,27,DifferentVocalizer_23,2.00,2581.00,2362.00,7251.00,0.00,2,1,0.00,7606,355.0011,10-Nov-11,4:47:57 PM,Male,1.00,23,English,3,2,1,3,2,5,4,4,3,4,41,58,DifferentVocalizer_24,2.00,1290.00,1300.00,4623.00,0.00,2,1,0.00,6647,2024.0012,11-Nov-11,11:03:21 AM,Female,0.00,18,English,2,4,4,2,1,1,1,4,3,5,65,24,DurationModified_1,0.00,1516.00,1006.00,5927.00,0.00,1,1,1.00,6310,383.0012,11-Nov-11,11:03:21 AM,Female,0.00,18,English,2,4,4,2,1,1,1,4,3,5,65,48,DurationModified_2,0.00,1024.00,536.00,4611.00,0.00,1,1,1.00,5372,761.0012,11-Nov-11,11:03:21 AM,Female,0.00,18,English,2,4,4,2,1,1,1,4,3,5,65,37,DurationModified_3,0.00,2756.00,1830.00,8340.00,0.00,1,1,1.00,8695,355.0012,11-Nov-11,11:03:21 AM,Female,0.00,18,English,2,4,4,2,1,1,1,4,3,5,65,10,DurationModified_4,0.00,839.00,973.00,4337.00,0.00,1,1,1.00,4680,343.0012,11-Nov-11,11:03:21 AM,Female,0.00,18,English,2,4,4,2,1,1,1,4,3,5,65,44,DurationModified_5,0.00,4599.00,3951.00,10891.00,0.00,1,1,1.00,11218,327.0012,11-Nov-11,11:03:21 AM,Female,0.00,18,English,2,4,4,2,1,1,1,4,3,5,65,22,DurationModified_6,0.00,420.00,382.00,2895.00,1.00,1,1,1.00,3753,858.0012,11-Nov-11,11:03:21 AM,Female,0.00,18,English,2,4,4,2,1,1,1,4,3,5,65,27,DurationModified_7,0.00,2579.00,1297.00,6154.00,0.00,1,1,1.00,6627,473.0012,11-Nov-11,11:03:21 AM,Female,0.00,18,English,2,4,4,2,1,1,1,4,3,5,65,16,DurationModified_8,0.00,3662.00,3013.00,9210.00,0.00,1,1,1.00,9511,301.0012,11-Nov-11,11:03:21 AM,Female,0.00,18,English,2,4,4,2,1,1,1,4,3,5,65,56,DurationModified_9,0.00,1583.00,1321.00,5504.00,0.00,1,1,1.00,5697,193.0012,11-Nov-11,11:03:21 AM,Female,0.00,18,English,2,4,4,2,1,1,1,4,3,5,65,43,DurationModified_10,0.00,2888.00,3611.00,9173.00,1.00,1,1,1.00,10042,869.0012,11-Nov-11,11:03:21 AM,Female,0.00,18,English,2,4,4,2,1,1,1,4,3,5,65,25,DurationModified_11,0.00,2938.00,3324.00,8308.00,0.00,1,1,1.00,8738,430.0012,11-Nov-11,11:03:21 AM,Female,0.00,18,English,2,4,4,2,1,1,1,4,3,5,65,21,DurationModified_12,0.00,1900.00,1279.00,5285.00,0.00,1,1,1.00,5755,470.0012,11-Nov-11,11:03:21 AM,Female,0.00,18,English,2,4,4,2,1,1,1,4,3,5,65,45,SameVocalizer_1,1.00,1163.00,1175.00,5347.00,1.00,1,2,0.00,5233,-114.0012,11-Nov-11,11:03:21 AM,Female,0.00,18,English,2,4,4,2,1,1,1,4,3,5,65,55,SameVocalizer_2,1.00,950.00,1175.00,4623.00,1.00,1,1,1.00,5782,1159.0012,11-Nov-11,11:03:21 AM,Female,0.00,18,English,2,4,4,2,1,1,1,4,3,5,65,47,SameVocalizer_3,1.00,950.00,1084.00,5338.00,1.00,1,1,1.00,5332,-6.0012,11-Nov-11,11:03:21 AM,Female,0.00,18,English,2,4,4,2,1,1,1,4,3,5,65,32,SameVocalizer_4,1.00,1163.00,1175.00,6044.00,1.00,1,1,1.00,6254,210.0012,11-Nov-11,11:03:21 AM,Female,0.00,18,English,2,4,4,2,1,1,1,4,3,5,65,17,SameVocalizer_5,1.00,1250.00,870.00,4270.00,0.00,1,1,1.00,6140,1870.0012,11-Nov-11,11:03:21 AM,Female,0.00,18,English,2,4,4,2,1,1,1,4,3,5,65,54,SameVocalizer_6,1.00,1305.00,1044.00,4409.00,0.00,1,1,1.00,5051,642.0012,11-Nov-11,11:03:21 AM,Female,0.00,18,English,2,4,4,2,1,1,1,4,3,5,65,38,SameVocalizer_7,1.00,1305.00,891.00,4439.00,0.00,1,1,1.00,4797,358.0012,11-Nov-11,11:03:21 AM,Female,0.00,18,English,2,4,4,2,1,1,1,4,3,5,65,8,SameVocalizer_8,1.00,487.00,468.00,3307.00,1.00,1,1,1.00,4208,901.0012,11-Nov-11,11:03:21 AM,Female,0.00,18,English,2,4,4,2,1,1,1,4,3,5,65,3,SameVocalizer_9,1.00,1818.00,1794.00,5841.00,1.00,1,2,0.00,6886,1045.0012,11-Nov-11,11:03:21 AM,Female,0.00,18,English,2,4,4,2,1,1,1,4,3,5,65,2,SameVocalizer_10,1.00,466.00,496.00,3212.00,1.00,1,1,1.00,4597,1385.0012,11-Nov-11,11:03:21 AM,Female,0.00,18,English,2,4,4,2,1,1,1,4,3,5,65,39,SameVocalizer_11,1.00,496.00,636.00,3415.00,1.00,1,1,1.00,3791,376.0012,11-Nov-11,11:03:21 AM,Female,0.00,18,English,2,4,4,2,1,1,1,4,3,5,65,58,SameVocalizer_12,1.00,1752.00,2024.00,5978.00,0.00,1,2,0.00,6475,497.0012,11-Nov-11,11:03:21 AM,Female,0.00,18,English,2,4,4,2,1,1,1,4,3,5,65,60,SameVocalizer_13,1.00,1418.00,1326.00,5210.00,0.00,1,1,1.00,5640,430.0012,11-Nov-11,11:03:21 AM,Female,0.00,18,English,2,4,4,2,1,1,1,4,3,5,65,30,SameVocalizer_14,1.00,677.00,679.00,3760.00,0.00,1,1,1.00,4705,945.0012,11-Nov-11,11:03:21 AM,Female,0.00,18,English,2,4,4,2,1,1,1,4,3,5,65,7,SameVocalizer_15,1.00,677.00,990.00,4003.00,0.00,1,1,1.00,4386,383.0012,11-Nov-11,11:03:21 AM,Female,0.00,18,English,2,4,4,2,1,1,1,4,3,5,65,46,SameVocalizer_16,1.00,3636.00,4663.00,10677.00,0.00,1,2,0.00,11067,390.0012,11-Nov-11,11:03:21 AM,Female,0.00,18,English,2,4,4,2,1,1,1,4,3,5,65,40,SameVocalizer_17,1.00,1635.00,1326.00,5182.00,0.00,1,1,1.00,5576,394.0012,11-Nov-11,11:03:21 AM,Female,0.00,18,English,2,4,4,2,1,1,1,4,3,5,65,9,SameVocalizer_18,1.00,533.00,659.00,3443.00,0.00,1,2,0.00,3679,236.0012,11-Nov-11,11:03:21 AM,Female,0.00,18,English,2,4,4,2,1,1,1,4,3,5,65,20,SameVocalizer_19,1.00,2078.00,1955.00,6320.00,0.00,1,1,1.00,5565,-755.0012,11-Nov-11,11:03:21 AM,Female,0.00,18,English,2,4,4,2,1,1,1,4,3,5,65,31,SameVocalizer_20,1.00,2050.00,1517.00,5594.00,0.00,1,1,1.00,5980,386.00